gx   gy   gz   ax    ay   az    mx    my   mz    //9.144m forward, 2.286m to the right
0.04 0.02 0.03 0.22 -0.61 10.22 0.22 -0.61 10.22 
0.05 0.02 0.04 0.18 -0.58 10.29 0.18 -0.58 10.29 
0.04 0.02 0.04 0.17 -0.55 10.28 0.17 -0.55 10.28 
0.04 0.02 0.04 0.17 -0.52 10.32 0.17 -0.52 10.32 
0.03 0.02 0.05 0.17 -0.52 10.31 0.17 -0.52 10.31 
0.03 0.02 0.04 0.16 -0.54 10.26 0.16 -0.54 10.26 
0.01 0.02 0.05 0.15 -0.56 10.20 0.15 -0.56 10.20 
0.01 0.02 0.04 0.16 -0.59 10.17 0.16 -0.59 10.17 
0.01 0.02 0.04 0.16 -0.57 10.14 0.16 -0.57 10.14 
0.01 0.02 0.04 0.17 -0.60 10.14 0.17 -0.60 10.14 
0.01 0.02 0.04 0.18 -0.61 10.10 0.18 -0.61 10.10 
0.00 0.01 0.04 0.16 -0.66 10.09 0.16 -0.66 10.09 
0.00 0.01 0.04 0.17 -0.69 10.03 0.17 -0.69 10.03 
0.01 0.01 0.04 0.17 -0.73 9.98 0.17 -0.73 9.98 
0.02 0.01 0.04 0.17 -0.71 10.01 0.17 -0.71 10.01 
0.03 0.01 0.04 0.18 -0.67 10.03 0.18 -0.67 10.03 
0.04 0.01 0.04 0.20 -0.60 10.20 0.20 -0.60 10.20 
0.05 0.02 0.04 0.19 -0.58 10.23 0.19 -0.58 10.23 
0.05 0.03 0.04 0.15 -0.55 10.24 0.15 -0.55 10.24 
0.04 0.03 0.04 0.13 -0.58 10.21 0.13 -0.58 10.21 
0.04 0.03 0.04 0.12 -0.58 10.19 0.12 -0.58 10.19 
0.04 0.03 0.04 0.13 -0.63 10.17 0.13 -0.63 10.17 
0.03 0.03 0.04 0.13 -0.59 10.11 0.13 -0.59 10.11 
0.03 0.03 0.04 0.12 -0.58 10.14 0.12 -0.58 10.14 
0.03 0.02 0.04 0.13 -0.61 10.18 0.13 -0.61 10.18 
0.03 0.02 0.04 0.17 -0.59 10.14 0.17 -0.59 10.14 
0.03 0.01 0.04 0.21 -0.63 10.14 0.21 -0.63 10.14 
0.03 0.01 0.03 0.21 -0.66 10.11 0.21 -0.66 10.11 
0.03 0.01 0.03 0.21 -0.67 10.16 0.21 -0.67 10.16 
0.04 0.02 0.03 0.24 -0.68 10.15 0.24 -0.68 10.15 
0.04 0.02 0.03 0.23 -0.67 10.15 0.23 -0.67 10.15 
0.04 0.02 0.03 0.22 -0.67 10.18 0.22 -0.67 10.18 
0.03 0.02 0.04 0.19 -0.68 10.16 0.19 -0.68 10.16 
0.03 0.01 0.04 0.19 -0.67 10.11 0.19 -0.67 10.11 
0.01 0.01 0.04 0.14 -0.70 10.10 0.14 -0.70 10.10 
0.02 0.00 0.04 0.19 -0.69 10.08 0.19 -0.69 10.08 
0.02 0.00 0.04 0.22 -0.68 10.06 0.22 -0.68 10.06 
0.01 0.01 0.03 0.22 -0.69 10.04 0.22 -0.69 10.04 
0.02 0.01 0.03 0.21 -0.71 10.06 0.21 -0.71 10.06 
0.01 0.01 0.03 0.17 -0.70 10.02 0.17 -0.70 10.02 
0.00 0.01 0.01 0.21 -0.78 9.99 0.21 -0.78 9.99 
-0.00 0.01 0.02 0.20 -0.78 9.96 0.20 -0.78 9.96 
-0.01 0.01 0.02 0.21 -0.81 9.90 0.21 -0.81 9.90 
-0.00 0.00 0.02 0.26 -0.88 9.84 0.26 -0.88 9.84 
0.02 -0.01 0.02 0.26 -0.90 9.84 0.26 -0.90 9.84 
0.04 -0.00 0.02 0.28 -0.94 9.87 0.28 -0.94 9.87 
0.04 0.00 0.02 0.28 -0.97 10.00 0.28 -0.97 10.00 
0.06 0.02 0.02 0.29 -1.00 10.05 0.29 -1.00 10.05 
0.05 0.03 0.01 0.17 -0.88 10.13 0.17 -0.88 10.13 
0.03 0.02 0.00 0.14 -0.77 10.15 0.14 -0.77 10.15 
-0.00 0.00 0.00 0.12 -0.77 10.16 0.12 -0.77 10.16 
-0.05 -0.02 0.00 0.05 -0.84 9.98 0.05 -0.84 9.98 
-0.08 -0.04 0.00 0.11 -0.97 9.93 0.11 -0.97 9.93 
-0.11 -0.06 0.00 0.11 -1.14 9.83 0.11 -1.14 9.83 
-0.13 -0.08 0.02 0.13 -1.33 9.74 0.13 -1.33 9.74 
-0.14 -0.09 0.03 0.17 -1.50 9.69 0.17 -1.50 9.69 
-0.14 -0.08 0.03 0.21 -1.64 9.76 0.21 -1.64 9.76 
-0.11 -0.07 0.03 0.30 -1.73 9.84 0.30 -1.73 9.84 
0.02 0.01 0.02 0.33 -1.80 9.97 0.33 -1.80 9.97 
0.12 0.06 0.02 0.46 -1.83 10.13 0.46 -1.83 10.13 
0.23 0.11 0.01 0.45 -1.67 10.39 0.45 -1.67 10.39 
0.34 0.16 0.00 0.40 -1.53 10.34 0.40 -1.53 10.34 
0.39 0.18 0.00 0.33 -1.28 10.40 0.33 -1.28 10.40 
0.38 0.16 0.00 0.26 -1.23 10.35 0.26 -1.23 10.35 
0.33 0.13 -0.00 0.24 -1.21 10.56 0.24 -1.21 10.56 
0.26 0.11 -0.00 0.20 -1.23 10.65 0.20 -1.23 10.65 
0.19 0.09 -0.00 0.17 -1.28 10.56 0.17 -1.28 10.56 
0.12 0.07 -0.00 0.14 -1.50 10.61 0.14 -1.50 10.61 
0.05 0.06 -0.01 0.12 -1.51 10.50 0.12 -1.51 10.50 
0.02 0.04 -0.01 0.24 -1.70 10.54 0.24 -1.70 10.54 
-0.00 0.03 -0.01 0.32 -1.77 10.67 0.32 -1.77 10.67 
0.02 0.03 -0.00 0.35 -1.79 10.75 0.35 -1.79 10.75 
0.06 0.05 -0.01 0.33 -1.72 10.75 0.33 -1.72 10.75 
0.10 0.05 -0.01 0.31 -1.53 10.56 0.31 -1.53 10.56 
0.10 0.03 -0.01 0.34 -1.42 10.42 0.34 -1.42 10.42 
0.07 -0.01 -0.00 0.34 -1.40 10.42 0.34 -1.40 10.42 
0.06 -0.06 -0.00 0.40 -1.38 10.27 0.40 -1.38 10.27 
0.04 -0.10 0.01 0.42 -1.36 10.04 0.42 -1.36 10.04 
-0.00 -0.14 0.02 0.44 -1.48 10.06 0.44 -1.48 10.06 
-0.01 -0.16 0.03 0.51 -1.59 10.01 0.51 -1.59 10.01 
-0.01 -0.17 0.04 0.53 -1.68 9.97 0.53 -1.68 9.97 
-0.02 -0.15 0.05 0.53 -1.71 9.84 0.53 -1.71 9.84 
-0.01 -0.14 0.06 0.46 -1.74 9.71 0.46 -1.74 9.71 
-0.02 -0.13 0.07 0.46 -1.83 9.50 0.46 -1.83 9.50 
-0.04 -0.12 0.07 0.45 -1.84 9.53 0.45 -1.84 9.53 
-0.03 -0.10 0.08 0.49 -1.93 9.47 0.49 -1.93 9.47 
-0.01 -0.07 0.08 0.56 -2.05 9.53 0.56 -2.05 9.53 
0.01 -0.03 0.07 0.43 -2.13 9.69 0.43 -2.13 9.69 
0.04 0.01 0.07 0.34 -2.10 9.78 0.34 -2.10 9.78 
0.08 0.06 0.07 0.18 -2.00 9.82 0.18 -2.00 9.82 
0.09 0.08 0.08 0.06 -1.90 9.83 0.06 -1.90 9.83 
0.08 0.09 0.08 0.05 -1.83 9.84 0.05 -1.83 9.84 
0.04 0.08 0.09 0.08 -1.86 9.86 0.08 -1.86 9.86 
0.00 0.05 0.10 0.05 -1.98 9.93 0.05 -1.98 9.93 
-0.04 0.02 0.11 0.02 -2.09 9.99 0.02 -2.09 9.99 
-0.05 -0.01 0.12 0.00 -2.14 10.02 0.00 -2.14 10.02 
-0.04 -0.02 0.12 0.00 -2.20 9.96 0.00 -2.20 9.96 
-0.03 -0.01 0.12 -0.03 -2.28 9.77 -0.03 -2.28 9.77 
0.00 -0.01 0.13 -0.01 -2.34 9.58 -0.01 -2.34 9.58 
0.03 -0.04 0.16 0.15 -2.45 9.60 0.15 -2.45 9.60 
0.11 -0.04 0.18 0.27 -2.59 9.84 0.27 -2.59 9.84 
0.20 -0.01 0.20 0.36 -2.54 10.08 0.36 -2.54 10.08 
0.31 0.03 0.22 0.33 -2.24 10.38 0.33 -2.24 10.38 
0.38 0.07 0.23 0.29 -1.89 10.53 0.29 -1.89 10.53 
0.41 0.08 0.23 0.23 -1.57 10.58 0.23 -1.57 10.58 
0.34 0.03 0.23 0.09 -1.28 10.52 0.09 -1.28 10.52 
0.24 -0.03 0.24 0.04 -1.25 11.06 0.04 -1.25 11.06 
0.17 -0.06 0.25 -0.19 -1.32 11.23 -0.19 -1.32 11.23 
0.04 -0.12 0.26 -0.41 -1.39 11.22 -0.41 -1.39 11.22 
-0.08 -0.16 0.27 -0.50 -1.49 10.91 -0.50 -1.49 10.91 
-0.20 -0.21 0.28 -0.51 -1.78 10.82 -0.51 -1.78 10.82 
-0.30 -0.25 0.28 -0.47 -2.04 10.43 -0.47 -2.04 10.43 
-0.32 -0.31 0.26 -0.22 -2.21 10.36 -0.22 -2.21 10.36 
-0.26 -0.33 0.24 -0.06 -2.18 10.46 -0.06 -2.18 10.46 
-0.12 -0.31 0.21 0.07 -1.92 10.73 0.07 -1.92 10.73 
0.06 -0.25 0.18 0.16 -1.53 11.28 0.16 -1.53 11.28 
0.25 -0.18 0.15 0.25 -1.12 11.83 0.25 -1.12 11.83 
0.40 -0.13 0.13 0.19 -0.42 11.94 0.19 -0.42 11.94 
0.35 -0.13 0.11 0.14 0.27 12.19 0.14 0.27 12.19 
0.27 -0.18 0.10 0.09 0.52 12.82 0.09 0.52 12.82 
0.15 -0.21 0.10 0.18 0.89 12.49 0.18 0.89 12.49 
-0.02 -0.24 0.08 0.38 0.79 12.67 0.38 0.79 12.67 
-0.16 -0.22 0.06 0.60 0.05 12.40 0.60 0.05 12.40 
-0.24 -0.13 0.04 0.67 -0.35 12.25 0.67 -0.35 12.25 
-0.26 0.16 -0.02 0.47 -0.57 11.88 0.47 -0.57 11.88 
-0.17 0.29 -0.05 0.24 -0.67 11.60 0.24 -0.67 11.60 
-0.09 0.40 -0.09 -0.11 -0.49 11.12 -0.11 -0.49 11.12 
-0.08 0.43 -0.10 -0.39 -0.41 10.87 -0.39 -0.41 10.87 
-0.11 0.40 -0.11 -0.55 -0.32 10.68 -0.55 -0.32 10.68 
-0.13 0.35 -0.11 -0.51 -0.33 10.29 -0.51 -0.33 10.29 
-0.20 0.25 -0.12 -0.47 -0.39 10.14 -0.47 -0.39 10.14 
-0.24 0.15 -0.12 -0.32 -0.31 9.91 -0.32 -0.31 9.91 
-0.25 0.05 -0.12 -0.05 -0.22 9.85 -0.05 -0.22 9.85 
-0.24 -0.02 -0.14 0.25 -0.13 9.88 0.25 -0.13 9.88 
-0.23 -0.05 -0.17 0.54 0.04 9.73 0.54 0.04 9.73 
-0.22 -0.06 -0.19 0.84 0.00 9.54 0.84 0.00 9.54 
-0.23 -0.05 -0.20 1.03 -0.22 9.36 1.03 -0.22 9.36 
-0.25 -0.05 -0.18 1.08 -0.51 9.09 1.08 -0.51 9.09 
-0.29 -0.04 -0.17 1.06 -0.84 8.90 1.06 -0.84 8.90 
-0.29 -0.03 -0.16 1.03 -1.01 8.60 1.03 -1.01 8.60 
-0.28 -0.02 -0.14 0.92 -1.29 8.28 0.92 -1.29 8.28 
-0.24 -0.01 -0.13 0.91 -1.31 8.19 0.91 -1.31 8.19 
-0.19 0.01 -0.12 0.90 -1.31 8.22 0.90 -1.31 8.22 
-0.11 0.04 -0.13 1.01 -1.42 8.30 1.01 -1.42 8.30 
-0.02 0.08 -0.14 1.04 -1.48 8.52 1.04 -1.48 8.52 
0.07 0.13 -0.15 1.02 -1.37 8.79 1.02 -1.37 8.79 
0.18 0.17 -0.16 0.89 -1.23 8.76 0.89 -1.23 8.76 
0.23 0.20 -0.16 0.60 -0.96 8.57 0.60 -0.96 8.57 
0.21 0.17 -0.16 0.60 -0.96 8.73 0.60 -0.96 8.73 
0.09 0.09 -0.17 0.58 -1.06 9.14 0.58 -1.06 9.14 
0.04 0.03 -0.16 0.80 -1.06 8.87 0.80 -1.06 8.87 
-0.02 -0.08 -0.15 0.95 -1.15 9.23 0.95 -1.15 9.23 
-0.12 -0.09 -0.15 1.06 -1.16 9.31 1.06 -1.16 9.31 
-0.12 -0.07 -0.14 1.25 -1.19 9.54 1.25 -1.19 9.54 
-0.12 -0.03 -0.14 1.31 -1.32 9.69 1.31 -1.32 9.69 
-0.09 0.02 -0.13 1.25 -1.40 9.79 1.25 -1.40 9.79 
-0.07 0.05 -0.12 1.09 -1.42 9.59 1.09 -1.42 9.59 
-0.08 0.06 -0.10 0.94 -1.54 9.45 0.94 -1.54 9.45 
-0.10 0.05 -0.08 0.91 -1.73 9.49 0.91 -1.73 9.49 
-0.09 0.04 -0.06 0.84 -1.90 9.38 0.84 -1.90 9.38 
-0.07 0.03 -0.04 0.99 -1.89 9.16 0.99 -1.89 9.16 
-0.08 -0.00 -0.01 1.16 -1.97 9.10 1.16 -1.97 9.10 
-0.13 -0.04 0.01 1.34 -2.05 9.23 1.34 -2.05 9.23 
-0.15 -0.06 0.02 1.44 -2.10 9.41 1.44 -2.10 9.41 
-0.12 -0.04 0.03 1.48 -2.17 9.61 1.48 -2.17 9.61 
-0.07 -0.01 0.02 1.32 -2.22 9.77 1.32 -2.22 9.77 
0.06 0.08 0.01 1.12 -2.19 9.83 1.12 -2.19 9.83 
0.07 0.11 0.01 0.95 -2.06 9.82 0.95 -2.06 9.82 
-0.01 0.09 0.02 0.78 -2.02 9.80 0.78 -2.02 9.80 
-0.10 0.06 0.03 0.71 -2.08 9.92 0.71 -2.08 9.92 
-0.17 0.03 0.05 0.66 -2.16 9.89 0.66 -2.16 9.89 
-0.23 0.00 0.07 0.61 -2.25 9.86 0.61 -2.25 9.86 
-0.26 0.01 0.08 0.60 -2.34 9.91 0.60 -2.34 9.91 
-0.26 0.02 0.09 0.51 -2.43 10.15 0.51 -2.43 10.15 
-0.22 0.04 0.09 0.50 -2.42 10.40 0.50 -2.42 10.40 
-0.15 0.08 0.09 0.53 -2.41 10.57 0.53 -2.41 10.57 
-0.09 0.09 0.08 0.57 -2.36 10.71 0.57 -2.36 10.71 
-0.06 0.11 0.06 0.56 -2.23 10.81 0.56 -2.23 10.81 
-0.04 0.11 0.05 0.50 -2.07 10.90 0.50 -2.07 10.90 
-0.05 0.10 0.04 0.38 -1.72 11.17 0.38 -1.72 11.17 
-0.03 0.11 0.03 0.37 -1.55 11.28 0.37 -1.55 11.28 
-0.02 0.11 0.03 0.34 -1.47 11.26 0.34 -1.47 11.26 
-0.03 0.09 0.04 0.33 -1.45 11.40 0.33 -1.45 11.40 
-0.05 0.08 0.04 0.26 -1.43 11.45 0.26 -1.43 11.45 
-0.06 0.07 0.04 0.09 -1.36 11.48 0.09 -1.36 11.48 
-0.05 0.06 0.03 0.04 -1.31 11.58 0.04 -1.31 11.58 
-0.01 0.07 0.02 0.12 -1.14 11.44 0.12 -1.14 11.44 
0.01 0.08 -0.01 0.27 -1.03 11.45 0.27 -1.03 11.45 
0.02 0.10 -0.02 0.41 -0.84 11.63 0.41 -0.84 11.63 
0.04 0.11 -0.03 0.49 -0.68 11.68 0.49 -0.68 11.68 
0.08 0.12 -0.02 0.73 -0.83 11.97 0.73 -0.83 11.97 
0.08 0.14 -0.01 0.24 -0.64 12.23 0.24 -0.64 12.23 
0.18 0.20 0.02 0.05 -0.23 11.76 0.05 -0.23 11.76 
0.05 0.18 0.02 -0.14 -0.23 12.22 -0.14 -0.23 12.22 
-0.01 0.18 0.02 -0.30 -0.26 11.89 -0.30 -0.26 11.89 
-0.09 0.15 0.02 -0.39 -0.40 11.29 -0.39 -0.40 11.29 
-0.12 0.14 0.01 -0.37 -0.96 10.86 -0.37 -0.96 10.86 
-0.10 0.13 0.01 -0.26 -1.15 10.59 -0.26 -1.15 10.59 
-0.05 0.11 0.00 -0.04 -1.33 10.30 -0.04 -1.33 10.30 
0.04 0.09 0.01 0.08 -1.27 10.04 0.08 -1.27 10.04 
0.11 0.05 0.03 0.14 -1.04 9.69 0.14 -1.04 9.69 
0.16 0.00 0.04 0.20 -0.81 9.37 0.20 -0.81 9.37 
0.14 -0.09 0.06 0.31 -0.56 9.14 0.31 -0.56 9.14 
0.09 -0.17 0.07 0.59 -0.50 8.82 0.59 -0.50 8.82 
0.01 -0.24 0.08 0.73 -0.49 8.62 0.73 -0.49 8.62 
-0.07 -0.33 0.05 0.89 -0.73 8.46 0.89 -0.73 8.46 
-0.12 -0.33 0.03 0.98 -0.89 8.19 0.98 -0.89 8.19 
-0.13 -0.28 0.02 1.05 -1.27 8.18 1.05 -1.27 8.18 
-0.09 -0.22 0.01 0.99 -1.45 8.22 0.99 -1.45 8.22 
-0.03 -0.14 -0.01 0.89 -1.43 8.22 0.89 -1.43 8.22 
0.02 -0.05 -0.03 0.74 -1.37 8.08 0.74 -1.37 8.08 
0.02 0.02 -0.07 0.50 -1.35 7.92 0.50 -1.35 7.92 
0.02 0.08 -0.10 0.31 -1.46 8.05 0.31 -1.46 8.05 
0.02 0.14 -0.14 0.15 -1.72 8.15 0.15 -1.72 8.15 
0.04 0.19 -0.17 0.01 -2.21 8.43 0.01 -2.21 8.43 
0.08 0.24 -0.18 -0.15 -2.23 8.52 -0.15 -2.23 8.52 
0.13 0.27 -0.18 -0.25 -2.15 8.57 -0.25 -2.15 8.57 
0.17 0.28 -0.17 -0.28 -2.02 8.81 -0.28 -2.02 8.81 
0.16 0.25 -0.16 -0.18 -1.97 9.00 -0.18 -1.97 9.00 
0.13 0.20 -0.14 -0.08 -2.14 9.22 -0.08 -2.14 9.22 
0.05 0.09 -0.12 0.09 -2.24 9.47 0.09 -2.24 9.47 
0.02 0.07 -0.10 0.23 -2.32 9.68 0.23 -2.32 9.68 
-0.01 0.07 -0.08 0.31 -2.36 9.70 0.31 -2.36 9.70 
-0.03 0.06 -0.05 0.35 -2.44 9.52 0.35 -2.44 9.52 
-0.06 0.06 -0.03 0.45 -2.56 9.58 0.45 -2.56 9.58 
-0.08 0.04 -0.00 0.52 -2.67 9.74 0.52 -2.67 9.74 
-0.04 0.04 0.02 0.65 -2.72 9.85 0.65 -2.72 9.85 
0.00 0.04 0.04 0.65 -2.71 9.89 0.65 -2.71 9.89 
0.05 0.02 0.08 0.70 -2.66 9.89 0.70 -2.66 9.89 
0.08 -0.00 0.11 0.77 -2.64 10.00 0.77 -2.64 10.00 
0.09 -0.02 0.16 0.78 -2.65 10.25 0.78 -2.65 10.25 
0.11 -0.02 0.20 0.78 -2.57 10.40 0.78 -2.57 10.40 
0.13 0.01 0.23 0.79 -2.43 10.44 0.79 -2.43 10.44 
0.15 0.02 0.26 0.75 -2.24 10.69 0.75 -2.24 10.69 
0.12 -0.00 0.30 0.77 -1.98 10.85 0.77 -1.98 10.85 
0.06 -0.02 0.30 0.74 -2.07 11.12 0.74 -2.07 11.12 
0.04 -0.02 0.29 0.63 -2.23 11.27 0.63 -2.23 11.27 
0.05 -0.02 0.26 0.48 -2.41 11.33 0.48 -2.41 11.33 
0.04 -0.00 0.23 0.28 -2.62 11.24 0.28 -2.62 11.24 
0.05 0.00 0.19 0.09 -2.58 11.10 0.09 -2.58 11.10 
0.07 -0.01 0.16 0.17 -2.37 11.10 0.17 -2.37 11.10 
0.12 -0.05 0.14 0.55 -2.09 11.20 0.55 -2.09 11.20 
0.17 -0.07 0.13 0.83 -1.79 11.41 0.83 -1.79 11.41 
0.25 -0.10 0.14 0.92 -1.48 11.82 0.92 -1.48 11.82 
0.32 -0.11 0.15 0.85 -1.13 12.20 0.85 -1.13 12.20 
0.39 -0.10 0.16 0.95 -1.04 12.43 0.95 -1.04 12.43 
0.42 -0.06 0.19 0.47 -0.63 13.01 0.47 -0.63 13.01 
0.60 0.05 0.20 0.43 0.09 13.11 0.43 0.09 13.11 
0.35 0.01 0.20 0.46 0.98 12.14 0.46 0.98 12.14 
0.24 -0.00 0.20 0.31 0.86 13.47 0.31 0.86 13.47 
0.16 0.02 0.20 0.60 1.14 12.14 0.60 1.14 12.14 
0.03 -0.02 0.18 0.29 0.71 11.80 0.29 0.71 11.80 
-0.07 -0.05 0.17 0.23 0.46 10.94 0.23 0.46 10.94 
-0.18 -0.09 0.16 0.45 -0.16 11.01 0.45 -0.16 11.01 
-0.22 -0.11 0.13 0.51 -0.47 10.36 0.51 -0.47 10.36 
-0.19 -0.08 0.10 0.60 -0.70 9.96 0.60 -0.70 9.96 
-0.15 -0.04 0.07 0.70 -1.00 9.87 0.70 -1.00 9.87 
-0.11 0.02 0.02 0.69 -1.26 9.83 0.69 -1.26 9.83 
-0.01 0.12 -0.03 0.61 -1.28 9.75 0.61 -1.28 9.75 
0.15 0.22 -0.12 0.44 -1.12 9.44 0.44 -1.12 9.44 
0.37 0.35 -0.15 0.16 -0.84 9.22 0.16 -0.84 9.22 
0.35 0.32 -0.17 -0.14 -0.46 8.85 -0.14 -0.46 8.85 
0.30 0.26 -0.17 -0.30 -0.49 9.27 -0.30 -0.49 9.27 
0.28 0.22 -0.15 -0.31 -0.45 9.20 -0.31 -0.45 9.20 
0.23 0.16 -0.13 -0.32 -0.32 9.04 -0.32 -0.32 9.04 
0.14 0.11 -0.10 -0.25 -0.37 9.13 -0.25 -0.37 9.13 
0.07 0.07 -0.07 -0.12 -0.42 8.80 -0.12 -0.42 8.80 
-0.02 0.03 -0.05 0.04 -0.59 8.60 0.04 -0.59 8.60 
-0.10 0.02 -0.02 0.19 -0.81 8.26 0.19 -0.81 8.26 
-0.17 0.01 -0.01 0.31 -1.13 7.39 0.31 -1.13 7.39 
-0.23 0.01 0.00 0.66 -1.45 7.25 0.66 -1.45 7.25 
-0.26 0.02 -0.00 0.78 -1.67 7.21 0.78 -1.67 7.21 
-0.25 0.06 -0.01 0.88 -1.85 7.20 0.88 -1.85 7.20 
-0.18 0.12 -0.02 0.91 -1.99 7.24 0.91 -1.99 7.24 
0.02 0.21 -0.04 0.88 -1.98 7.33 0.88 -1.98 7.33 
0.07 0.23 -0.05 0.93 -2.01 7.39 0.93 -2.01 7.39 
0.07 0.22 -0.04 0.91 -1.96 7.71 0.91 -1.96 7.71 
0.07 0.20 -0.04 0.78 -1.97 8.09 0.78 -1.97 8.09 
0.05 0.17 -0.05 0.55 -1.90 8.37 0.55 -1.90 8.37 
0.02 0.16 -0.06 0.38 -1.87 8.53 0.38 -1.87 8.53 
-0.01 0.14 -0.08 0.22 -1.90 8.81 0.22 -1.90 8.81 
-0.03 0.11 -0.11 0.07 -1.90 9.02 0.07 -1.90 9.02 
-0.01 0.08 -0.12 -0.02 -1.93 9.28 -0.02 -1.93 9.28 
0.03 0.04 -0.13 0.04 -1.96 9.62 0.04 -1.96 9.62 
0.09 0.01 -0.12 0.11 -1.95 9.84 0.11 -1.95 9.84 
0.13 -0.02 -0.12 0.21 -1.89 10.13 0.21 -1.89 10.13 
0.15 -0.06 -0.11 0.26 -1.75 10.48 0.26 -1.75 10.48 
0.17 -0.09 -0.11 0.29 -1.61 10.72 0.29 -1.61 10.72 
0.17 -0.11 -0.11 0.29 -1.47 10.94 0.29 -1.47 10.94 
0.14 -0.10 -0.11 0.45 -1.17 11.23 0.45 -1.17 11.23 
0.08 -0.10 -0.11 0.55 -1.07 11.63 0.55 -1.07 11.63 
0.03 -0.10 -0.10 0.50 -0.96 11.99 0.50 -0.96 11.99 
-0.01 -0.07 -0.08 0.56 -0.92 12.05 0.56 -0.92 12.05 
-0.06 -0.05 -0.06 0.67 -1.09 12.33 0.67 -1.09 12.33 
-0.09 -0.02 -0.04 0.67 -1.20 12.40 0.67 -1.20 12.40 
-0.08 0.03 -0.02 0.49 -1.21 12.54 0.49 -1.21 12.54 
-0.04 0.10 0.00 0.21 -1.08 12.60 0.21 -1.08 12.60 
0.04 0.17 0.01 -0.04 -0.99 12.61 -0.04 -0.99 12.61 
0.06 0.21 0.01 -0.14 -0.50 12.95 -0.14 -0.50 12.95 
0.11 0.26 -0.03 -0.32 -0.35 13.01 -0.32 -0.35 13.01 
0.16 0.33 -0.05 -0.36 -0.30 13.62 -0.36 -0.30 13.62 
0.27 0.44 -0.07 -0.52 -0.02 13.65 -0.52 -0.02 13.65 
0.22 0.42 -0.04 -0.70 0.34 13.67 -0.70 0.34 13.67 
0.11 0.36 -0.01 -0.90 0.72 13.50 -0.90 0.72 13.50 
-0.03 0.29 0.01 -0.93 0.83 13.21 -0.93 0.83 13.21 
-0.16 0.24 0.02 -0.81 0.70 12.48 -0.81 0.70 12.48 
-0.23 0.20 0.02 -0.41 -0.11 11.83 -0.41 -0.11 11.83 
-0.25 0.20 0.02 -0.44 -0.35 11.35 -0.44 -0.35 11.35 
-0.23 0.19 0.00 -0.41 -0.65 10.89 -0.41 -0.65 10.89 
-0.19 0.18 -0.01 -0.39 -0.85 10.50 -0.39 -0.85 10.50 
-0.09 0.16 -0.03 -0.25 -1.23 10.02 -0.25 -1.23 10.02 
0.02 0.13 -0.05 -0.53 -1.17 9.89 -0.53 -1.17 9.89 
0.15 0.08 -0.07 -0.61 -1.25 9.89 -0.61 -1.25 9.89 
0.34 0.07 -0.10 -0.74 -0.56 8.75 -0.74 -0.56 8.75 
0.27 -0.10 -0.10 -0.68 -0.67 9.03 -0.68 -0.67 9.03 
0.27 -0.16 -0.09 -0.37 -0.68 9.21 -0.37 -0.68 9.21 
0.22 -0.20 -0.08 -0.32 -0.10 8.23 -0.32 -0.10 8.23 
0.08 -0.27 -0.07 -0.03 -0.20 8.45 -0.03 -0.20 8.45 
0.00 -0.29 -0.06 0.14 -0.28 8.00 0.14 -0.28 8.00 
-0.08 -0.29 -0.05 0.58 -0.53 7.91 0.58 -0.53 7.91 
-0.15 -0.26 -0.04 0.69 -0.74 7.65 0.69 -0.74 7.65 
-0.19 -0.21 -0.04 0.69 -0.96 7.41 0.69 -0.96 7.41 
-0.20 -0.15 -0.03 0.70 -1.18 7.15 0.70 -1.18 7.15 
-0.20 -0.09 -0.04 0.70 -1.43 7.13 0.70 -1.43 7.13 
-0.16 -0.02 -0.04 0.67 -1.70 7.17 0.67 -1.70 7.17 
-0.09 0.03 -0.06 0.50 -1.73 7.32 0.50 -1.73 7.32 
0.01 0.09 -0.06 0.32 -1.74 7.42 0.32 -1.74 7.42 
0.08 0.12 -0.06 0.18 -1.78 7.78 0.18 -1.78 7.78 
0.11 0.12 -0.07 0.06 -1.72 8.08 0.06 -1.72 8.08 
0.12 0.10 -0.05 -0.11 -1.66 8.33 -0.11 -1.66 8.33 
0.06 0.05 -0.04 -0.20 -1.53 8.30 -0.20 -1.53 8.30 
-0.07 -0.01 -0.02 -0.14 -1.63 8.66 -0.14 -1.63 8.66 
-0.16 -0.06 0.00 -0.11 -1.86 8.83 -0.11 -1.86 8.83 
-0.22 -0.08 0.03 -0.11 -2.14 8.77 -0.11 -2.14 8.77 
-0.27 -0.11 0.05 -0.16 -2.46 8.83 -0.16 -2.46 8.83 
-0.28 -0.12 0.06 -0.24 -2.78 8.97 -0.24 -2.78 8.97 
-0.21 -0.13 0.09 -0.39 -2.92 9.22 -0.39 -2.92 9.22 
-0.12 -0.12 0.10 -0.44 -2.99 9.54 -0.44 -2.99 9.54 
0.03 -0.11 0.10 -0.44 -2.87 9.92 -0.44 -2.87 9.92 
0.17 -0.11 0.11 -0.41 -2.60 10.27 -0.41 -2.60 10.27 
0.29 -0.12 0.12 -0.26 -2.23 10.68 -0.26 -2.23 10.68 
0.35 -0.14 0.13 -0.11 -2.02 11.05 -0.11 -2.02 11.05 
0.37 -0.16 0.15 0.02 -1.79 11.36 0.02 -1.79 11.36 
0.30 -0.19 0.17 0.13 -1.61 11.87 0.13 -1.61 11.87 
0.22 -0.21 0.19 0.50 -1.35 12.02 0.50 -1.35 12.02 
0.13 -0.20 0.20 0.72 -1.42 12.03 0.72 -1.42 12.03 
0.05 -0.18 0.22 0.85 -1.51 11.88 0.85 -1.51 11.88 
-0.00 -0.15 0.22 0.98 -1.60 11.70 0.98 -1.60 11.70 
-0.00 -0.12 0.23 1.07 -1.62 11.91 1.07 -1.62 11.91 
0.05 -0.07 0.23 1.08 -1.65 12.28 1.08 -1.65 12.28 
0.17 0.00 0.24 1.03 -1.45 12.74 1.03 -1.45 12.74 
0.31 0.10 0.23 0.87 -1.41 13.10 0.87 -1.41 13.10 
0.41 0.18 0.21 0.69 -0.34 13.08 0.69 -0.34 13.08 
0.43 0.23 0.19 0.40 0.20 13.11 0.40 0.20 13.11 
0.33 0.21 0.20 0.34 0.29 13.85 0.34 0.29 13.85 
0.26 0.22 0.18 0.30 0.69 13.43 0.30 0.69 13.43 
0.04 0.22 0.15 0.18 0.93 13.43 0.18 0.93 13.43 
-0.03 0.22 0.13 0.14 0.87 13.15 0.14 0.87 13.15 
-0.09 0.22 0.12 0.08 0.99 12.97 0.08 0.99 12.97 
-0.13 0.19 0.14 -0.00 0.75 12.52 -0.00 0.75 12.52 
-0.17 0.17 0.15 -0.11 0.64 12.37 -0.11 0.64 12.37 
-0.17 0.17 0.15 -0.08 0.53 11.64 -0.08 0.53 11.64 
-0.19 0.14 0.15 0.01 0.37 11.36 0.01 0.37 11.36 
-0.18 0.10 0.13 0.10 0.35 10.92 0.10 0.35 10.92 
-0.16 0.05 0.11 0.17 0.20 10.51 0.17 0.20 10.51 
-0.14 -0.01 0.09 0.19 0.10 10.30 0.19 0.10 10.30 
-0.07 -0.06 0.06 0.26 0.09 9.82 0.26 0.09 9.82 
0.00 -0.11 0.04 0.31 0.11 9.79 0.31 0.11 9.79 
0.05 -0.16 0.02 0.31 0.07 9.72 0.31 0.07 9.72 
0.12 -0.18 -0.00 0.37 0.12 9.45 0.37 0.12 9.45 
0.14 -0.19 -0.03 0.37 -0.01 9.32 0.37 -0.01 9.32 
0.11 -0.18 -0.02 0.35 -0.04 9.07 0.35 -0.04 9.07 
0.04 -0.16 -0.01 0.35 -0.23 8.70 0.35 -0.23 8.70 
-0.05 -0.14 0.00 0.37 -0.48 8.38 0.37 -0.48 8.38 
-0.14 -0.11 0.02 0.36 -0.68 8.12 0.36 -0.68 8.12 
-0.19 -0.06 0.04 0.40 -1.01 7.62 0.40 -1.01 7.62 
-0.25 -0.00 0.06 0.33 -1.23 7.30 0.33 -1.23 7.30 
-0.27 0.04 0.08 0.31 -1.47 7.01 0.31 -1.47 7.01 
-0.25 0.07 0.10 0.36 -1.69 6.88 0.36 -1.69 6.88 
-0.21 0.11 0.12 0.41 -1.79 6.87 0.41 -1.79 6.87 
-0.15 0.15 0.12 0.45 -1.86 7.01 0.45 -1.86 7.01 
-0.06 0.17 0.11 0.48 -1.84 7.04 0.48 -1.84 7.04 
0.00 0.18 0.09 0.45 -1.78 6.98 0.45 -1.78 6.98 
0.04 0.17 0.06 0.44 -1.80 7.27 0.44 -1.80 7.27 
0.05 0.15 0.04 0.48 -1.94 7.64 0.48 -1.94 7.64 
0.13 0.14 0.02 0.55 -1.98 8.04 0.55 -1.98 8.04 
0.18 0.15 0.02 0.43 -1.92 8.33 0.43 -1.92 8.33 
0.20 0.14 0.02 0.30 -1.83 8.40 0.30 -1.83 8.40 
0.16 0.10 0.00 0.23 -1.71 8.50 0.23 -1.71 8.50 
0.08 0.05 -0.02 0.36 -1.81 8.80 0.36 -1.81 8.80 
0.01 -0.01 -0.02 0.49 -1.90 9.24 0.49 -1.90 9.24 
0.00 -0.04 -0.04 0.60 -2.08 9.61 0.60 -2.08 9.61 
0.01 -0.05 -0.04 0.58 -2.21 9.84 0.58 -2.21 9.84 
0.03 -0.07 -0.03 0.49 -2.25 10.03 0.49 -2.25 10.03 
0.04 -0.08 -0.01 0.41 -2.31 10.23 0.41 -2.31 10.23 
0.04 -0.11 -0.00 0.38 -2.30 10.47 0.38 -2.30 10.47 
0.04 -0.11 0.01 0.38 -2.24 10.68 0.38 -2.24 10.68 
0.05 -0.10 0.01 0.45 -2.11 10.91 0.45 -2.11 10.91 
0.06 -0.08 0.01 0.50 -1.92 11.28 0.50 -1.92 11.28 
0.08 -0.05 -0.01 0.53 -1.66 11.65 0.53 -1.66 11.65 
0.02 -0.01 -0.01 0.47 -1.28 11.93 0.47 -1.28 11.93 
-0.07 0.01 -0.02 0.46 -1.21 12.34 0.46 -1.21 12.34 
-0.14 0.04 -0.01 0.43 -1.34 12.41 0.43 -1.34 12.41 
-0.22 0.03 0.01 0.44 -1.57 12.22 0.44 -1.57 12.22 
-0.27 0.00 0.03 0.41 -1.64 11.93 0.41 -1.64 11.93 
-0.28 -0.03 0.06 0.30 -1.58 11.75 0.30 -1.58 11.75 
-0.27 -0.06 0.09 0.32 -1.51 11.70 0.32 -1.51 11.70 
-0.22 -0.07 0.11 0.34 -1.45 11.78 0.34 -1.45 11.78 
-0.15 -0.05 0.10 0.37 -1.49 11.98 0.37 -1.49 11.98 
-0.04 0.01 0.07 0.39 -1.40 12.29 0.39 -1.40 12.29 
0.08 0.10 0.03 0.28 -1.33 12.44 0.28 -1.33 12.44 
0.20 0.19 -0.01 0.14 -1.16 12.56 0.14 -1.16 12.56 
0.27 0.31 -0.04 -0.05 -0.93 12.76 -0.05 -0.93 12.76 
0.30 0.33 -0.04 -0.43 -0.34 12.89 -0.43 -0.34 12.89 
0.24 0.32 -0.02 -0.72 0.10 12.62 -0.72 0.10 12.62 
0.14 0.28 -0.03 -0.95 0.39 12.78 -0.95 0.39 12.78 
0.03 0.25 -0.04 -1.03 0.64 12.27 -1.03 0.64 12.27 
-0.09 0.19 -0.06 -1.12 0.63 11.83 -1.12 0.63 11.83 
-0.13 0.15 -0.07 -0.98 0.29 11.56 -0.98 0.29 11.56 
-0.09 0.14 -0.09 -0.67 -0.42 10.90 -0.67 -0.42 10.90 
-0.01 0.16 -0.10 -0.77 -0.62 10.59 -0.77 -0.62 10.59 
0.10 0.16 -0.12 -0.87 -0.69 10.22 -0.87 -0.69 10.22 
0.21 0.15 -0.13 -0.73 -0.93 9.98 -0.73 -0.93 9.98 
0.27 0.11 -0.12 -0.71 -0.91 9.96 -0.71 -0.91 9.96 
0.34 0.04 -0.08 -0.68 -0.55 9.22 -0.68 -0.55 9.22 
0.39 -0.03 -0.02 -0.40 -0.29 9.06 -0.40 -0.29 9.06 
0.14 -0.27 0.02 -0.20 -0.45 8.93 -0.20 -0.45 8.93 
0.04 -0.35 0.05 0.32 -0.38 8.28 0.32 -0.38 8.28 
-0.07 -0.41 0.06 0.52 -0.45 7.88 0.52 -0.45 7.88 
-0.16 -0.39 0.05 0.86 -0.61 7.61 0.86 -0.61 7.61 
-0.22 -0.32 0.03 1.11 -0.79 7.00 1.11 -0.79 7.00 
-0.24 -0.21 0.00 1.29 -0.91 6.97 1.29 -0.91 6.97 
-0.25 -0.06 -0.04 1.33 -1.17 6.62 1.33 -1.17 6.62 
-0.22 0.08 -0.08 1.14 -1.55 6.76 1.14 -1.55 6.76 
-0.07 0.23 -0.12 1.03 -2.14 7.33 1.03 -2.14 7.33 
0.22 0.38 -0.13 0.55 -2.07 7.27 0.55 -2.07 7.27 
0.43 0.45 -0.15 0.13 -1.98 7.09 0.13 -1.98 7.09 
0.62 0.49 -0.16 -0.19 -1.59 7.18 -0.19 -1.59 7.18 
0.68 0.48 -0.16 -0.56 -1.34 6.60 -0.56 -1.34 6.60 
0.45 0.33 -0.17 -0.80 -1.63 8.99 -0.80 -1.63 8.99 
0.30 0.18 -0.14 -0.30 -1.68 9.24 -0.30 -1.68 9.24 
0.33 0.13 -0.11 -0.28 -1.58 9.49 -0.28 -1.58 9.49 
0.24 0.07 -0.07 -0.25 -1.59 9.38 -0.25 -1.59 9.38 
0.12 -0.02 -0.04 -0.19 -1.77 9.98 -0.19 -1.77 9.98 
0.05 -0.10 0.01 0.09 -1.95 9.98 0.09 -1.95 9.98 
-0.03 -0.16 0.07 0.22 -2.12 10.25 0.22 -2.12 10.25 
-0.11 -0.23 0.11 0.27 -2.25 10.15 0.27 -2.25 10.15 
-0.16 -0.29 0.17 0.29 -2.30 10.16 0.29 -2.30 10.16 
-0.19 -0.33 0.21 0.31 -2.35 10.17 0.31 -2.35 10.17 
-0.20 -0.36 0.23 0.38 -2.37 10.40 0.38 -2.37 10.40 
-0.17 -0.35 0.23 0.42 -2.40 10.64 0.42 -2.40 10.64 
-0.10 -0.29 0.22 0.44 -2.42 11.01 0.44 -2.42 11.01 
0.01 -0.22 0.21 0.50 -2.31 11.30 0.50 -2.31 11.30 
0.12 -0.15 0.21 0.57 -2.14 11.55 0.57 -2.14 11.55 
0.19 -0.07 0.23 0.56 -1.79 11.77 0.56 -1.79 11.77 
0.17 -0.06 0.26 0.46 -1.46 12.00 0.46 -1.46 12.00 
0.14 -0.06 0.27 0.54 -1.22 12.19 0.54 -1.22 12.19 
0.08 -0.05 0.29 0.71 -1.44 12.53 0.71 -1.44 12.53 
0.05 -0.04 0.32 0.21 -1.48 12.40 0.21 -1.48 12.40 
0.02 -0.03 0.33 -0.25 -1.40 12.19 -0.25 -1.40 12.19 
-0.02 -0.03 0.33 -0.63 -1.38 12.20 -0.63 -1.38 12.20 
-0.04 -0.04 0.31 -0.85 -1.43 12.39 -0.85 -1.43 12.39 
-0.01 -0.03 0.26 -0.86 -1.37 12.76 -0.86 -1.37 12.76 
0.08 -0.00 0.20 -0.33 -1.03 13.24 -0.33 -1.03 13.24 
0.23 0.01 0.12 0.30 -0.45 13.33 0.30 -0.45 13.33 
0.31 -0.02 0.07 0.50 0.25 13.15 0.50 0.25 13.15 
0.31 -0.10 0.06 0.68 1.34 13.48 0.68 1.34 13.48 
-0.03 -0.19 0.09 0.99 1.75 13.47 0.99 1.75 13.47 
-0.26 -0.14 0.11 1.35 1.65 13.30 1.35 1.65 13.30 
-0.44 -0.06 0.14 1.52 1.38 12.60 1.52 1.38 12.60 
-0.54 0.03 0.16 1.44 0.94 11.69 1.44 0.94 11.69 
-0.56 0.11 0.15 1.52 0.46 10.95 1.52 0.46 10.95 
-0.48 0.21 0.13 1.46 0.01 10.29 1.46 0.01 10.29 
-0.34 0.30 0.10 1.27 -0.58 10.12 1.27 -0.58 10.12 
-0.07 0.40 0.08 0.34 -0.94 10.08 0.34 -0.94 10.08 
0.26 0.50 0.06 -0.12 -0.42 10.15 -0.12 -0.42 10.15 
0.59 0.57 0.03 -0.73 0.31 9.30 -0.73 0.31 9.30 
0.76 0.56 0.01 -0.89 0.36 9.40 -0.89 0.36 9.40 
0.55 0.41 -0.01 -0.91 0.11 10.54 -0.91 0.11 10.54 
0.44 0.32 -0.03 -0.51 0.06 9.41 -0.51 0.06 9.41 
0.16 0.18 -0.00 -0.45 -0.22 9.64 -0.45 -0.22 9.64 
0.05 0.10 0.02 -0.21 -0.48 8.71 -0.21 -0.48 8.71 
-0.12 -0.00 0.07 -0.09 -0.53 8.30 -0.09 -0.53 8.30 
-0.23 -0.07 0.11 0.22 -0.91 7.98 0.22 -0.91 7.98 
-0.27 -0.11 0.15 0.40 -1.09 7.37 0.40 -1.09 7.37 
-0.28 -0.14 0.17 0.51 -1.24 6.96 0.51 -1.24 6.96 
-0.27 -0.12 0.19 0.76 -1.56 6.93 0.76 -1.56 6.93 
-0.21 -0.05 0.21 0.93 -1.63 6.88 0.93 -1.63 6.88 
-0.12 0.03 0.23 1.04 -1.66 6.93 1.04 -1.66 6.93 
-0.00 0.10 0.24 1.00 -1.55 7.11 1.00 -1.55 7.11 
0.10 0.17 0.26 0.87 -1.40 7.07 0.87 -1.40 7.07 
0.09 0.19 0.26 0.75 -1.14 6.55 0.75 -1.14 6.55 
-0.05 0.14 0.25 0.53 -1.21 6.99 0.53 -1.21 6.99 
-0.17 0.07 0.25 0.55 -1.39 7.53 0.55 -1.39 7.53 
-0.19 0.04 0.25 0.55 -1.47 8.13 0.55 -1.47 8.13 
-0.07 0.02 0.22 0.23 -1.34 8.19 0.23 -1.34 8.19 
-0.05 -0.01 0.20 0.15 -1.26 8.29 0.15 -1.26 8.29 
-0.09 -0.05 0.15 0.03 -1.24 8.46 0.03 -1.24 8.46 
-0.15 -0.08 0.11 -0.03 -1.44 8.63 -0.03 -1.44 8.63 
-0.17 -0.09 0.08 0.02 -1.79 8.89 0.02 -1.79 8.89 
-0.15 -0.08 0.04 0.00 -2.14 9.15 0.00 -2.14 9.15 
-0.08 -0.05 0.02 -0.22 -2.32 9.51 -0.22 -2.32 9.51 
0.01 -0.02 0.01 -0.38 -2.34 9.81 -0.38 -2.34 9.81 
0.11 0.00 -0.00 -0.56 -2.19 10.06 -0.56 -2.19 10.06 
0.13 0.01 -0.01 -0.70 -1.97 10.40 -0.70 -1.97 10.40 
0.11 0.00 -0.03 -0.73 -1.74 10.71 -0.73 -1.74 10.71 
0.06 -0.02 -0.04 -0.65 -1.56 11.15 -0.65 -1.56 11.15 
0.02 -0.03 -0.06 -0.37 -1.39 11.72 -0.37 -1.39 11.72 
0.00 -0.02 -0.09 -0.17 -1.31 12.29 -0.17 -1.31 12.29 
0.08 0.03 -0.12 -0.19 -1.17 12.56 -0.19 -1.17 12.56 
0.08 0.02 -0.14 -0.23 -0.91 12.71 -0.23 -0.91 12.71 
0.05 -0.00 -0.15 -0.19 -0.90 13.36 -0.19 -0.90 13.36 
0.04 0.02 -0.17 -0.11 -0.92 13.82 -0.11 -0.92 13.82 
-0.01 0.03 -0.20 -0.16 -0.85 13.85 -0.16 -0.85 13.85 
-0.04 0.04 -0.23 -0.22 -0.81 13.71 -0.22 -0.81 13.71 
-0.06 0.05 -0.24 -0.16 -0.84 13.59 -0.16 -0.84 13.59 
-0.03 0.06 -0.25 -0.14 -0.82 13.59 -0.14 -0.82 13.59 
0.03 0.07 -0.24 -0.23 -0.74 13.55 -0.23 -0.74 13.55 
0.12 0.08 -0.22 -0.35 -0.39 13.40 -0.35 -0.39 13.40 
0.17 0.06 -0.18 -0.43 0.05 13.19 -0.43 0.05 13.19 
0.17 -0.01 -0.13 -0.38 0.13 13.09 -0.38 0.13 13.09 
0.08 -0.08 -0.02 -0.20 0.63 12.70 -0.20 0.63 12.70 
-0.14 -0.15 0.03 -0.16 0.51 11.88 -0.16 0.51 11.88 
-0.21 -0.14 0.05 -0.07 0.19 11.70 -0.07 0.19 11.70 
-0.22 -0.08 0.05 -0.02 -0.14 11.11 -0.02 -0.14 11.11 
-0.17 0.01 0.03 -0.07 -0.39 10.55 -0.07 -0.39 10.55 
-0.11 0.09 0.01 -0.23 -0.71 10.09 -0.23 -0.71 10.09 
-0.01 0.17 -0.02 -0.42 -0.89 9.70 -0.42 -0.89 9.70 
0.10 0.23 -0.04 -0.55 -0.91 9.37 -0.55 -0.91 9.37 
0.19 0.27 -0.04 -0.59 -0.88 8.84 -0.59 -0.88 8.84 
0.20 0.27 -0.04 -0.44 -0.91 8.48 -0.44 -0.91 8.48 
0.15 0.25 -0.02 0.06 -0.92 8.08 0.06 -0.92 8.08 
0.16 0.26 -0.01 0.13 -0.90 7.55 0.13 -0.90 7.55 
0.15 0.25 0.01 0.12 -0.87 7.22 0.12 -0.87 7.22 
0.10 0.22 0.02 0.16 -0.93 7.16 0.16 -0.93 7.16 
0.09 0.17 0.03 0.19 -0.96 7.08 0.19 -0.96 7.08 
0.16 0.06 0.05 0.18 -0.92 7.19 0.18 -0.92 7.19 
0.17 -0.00 0.06 0.16 -0.70 7.36 0.16 -0.70 7.36 
0.14 -0.06 0.05 0.21 -0.51 7.63 0.21 -0.51 7.63 
0.09 -0.09 0.03 0.26 -0.55 7.78 0.26 -0.55 7.78 
0.03 -0.10 -0.00 0.30 -0.71 7.91 0.30 -0.71 7.91 
-0.03 -0.12 -0.03 0.21 -0.88 7.92 0.21 -0.88 7.92 
-0.08 -0.11 -0.04 0.14 -1.07 7.83 0.14 -1.07 7.83 
-0.08 -0.11 -0.05 0.05 -1.25 7.77 0.05 -1.25 7.77 
-0.08 -0.11 -0.06 -0.07 -1.51 7.78 -0.07 -1.51 7.78 
-0.03 -0.11 -0.05 -0.20 -1.68 8.01 -0.20 -1.68 8.01 
0.04 -0.10 -0.04 -0.28 -1.84 8.30 -0.28 -1.84 8.30 
0.12 -0.11 -0.03 -0.27 -1.87 8.63 -0.27 -1.87 8.63 
0.14 -0.13 -0.01 -0.28 -1.80 8.84 -0.28 -1.80 8.84 
0.12 -0.15 0.01 -0.16 -1.81 9.05 -0.16 -1.81 9.05 
0.07 -0.18 0.03 -0.06 -1.91 9.27 -0.06 -1.91 9.27 
0.02 -0.22 0.08 0.03 -2.05 9.33 0.03 -2.05 9.33 
-0.04 -0.22 0.10 0.29 -2.22 9.54 0.29 -2.22 9.54 
-0.04 -0.21 0.13 0.33 -2.23 9.75 0.33 -2.23 9.75 
-0.03 -0.18 0.15 0.36 -2.32 10.09 0.36 -2.32 10.09 
-0.01 -0.16 0.17 0.25 -2.37 10.59 0.25 -2.37 10.59 
0.04 -0.10 0.18 0.15 -2.41 10.99 0.15 -2.41 10.99 
0.12 -0.03 0.18 0.03 -2.40 11.38 0.03 -2.40 11.38 
0.20 0.03 0.18 -0.13 -2.32 11.65 -0.13 -2.32 11.65 
0.25 0.07 0.18 -0.47 -2.15 11.88 -0.47 -2.15 11.88 
0.26 0.07 0.19 -0.76 -1.80 11.95 -0.76 -1.80 11.95 
0.23 0.01 0.19 -0.82 -1.54 12.52 -0.82 -1.54 12.52 
0.17 -0.06 0.20 -0.69 -1.39 12.74 -0.69 -1.39 12.74 
0.09 -0.11 0.20 -0.52 -1.37 12.91 -0.52 -1.37 12.91 
-0.02 -0.16 0.17 -0.30 -1.34 12.84 -0.30 -1.34 12.84 
-0.19 -0.15 0.15 -0.12 -1.42 12.72 -0.12 -1.42 12.72 
-0.19 -0.10 0.13 0.11 -1.50 12.89 0.11 -1.50 12.89 
-0.11 -0.01 0.10 0.32 -1.60 12.97 0.32 -1.60 12.97 
0.02 0.09 0.08 0.37 -1.59 13.14 0.37 -1.59 13.14 
0.15 0.19 0.08 0.31 -0.86 12.85 0.31 -0.86 12.85 
0.21 0.25 0.07 0.38 -0.83 13.24 0.38 -0.83 13.24 
0.18 0.27 0.05 0.42 -0.56 13.39 0.42 -0.56 13.39 
0.29 0.35 0.05 0.14 0.19 12.90 0.14 0.19 12.90 
0.31 0.40 0.05 0.14 0.30 13.26 0.14 0.30 13.26 
0.25 0.39 0.04 0.11 0.68 13.10 0.11 0.68 13.10 
0.21 0.39 0.05 0.08 0.82 12.62 0.08 0.82 12.62 
0.13 0.35 0.07 0.08 0.85 12.43 0.08 0.85 12.43 
0.03 0.28 0.11 0.10 0.84 11.74 0.10 0.84 11.74 
-0.13 0.09 0.12 0.23 0.52 11.16 0.23 0.52 11.16 
-0.17 0.01 0.12 0.43 0.03 10.62 0.43 0.03 10.62 
-0.15 -0.03 0.11 0.63 -0.21 10.23 0.63 -0.21 10.23 
-0.11 -0.03 0.08 0.75 -0.38 9.71 0.75 -0.38 9.71 
-0.05 -0.01 0.05 0.62 -0.44 9.40 0.62 -0.44 9.40 
0.02 0.03 0.01 0.50 -0.36 9.11 0.50 -0.36 9.11 
0.09 0.07 -0.01 0.29 -0.10 8.81 0.29 -0.10 8.81 
0.08 0.09 -0.04 0.24 -0.15 8.40 0.24 -0.15 8.40 
0.06 0.09 -0.07 0.07 -0.05 8.54 0.07 -0.05 8.54 
0.07 0.12 -0.09 0.03 -0.15 8.29 0.03 -0.15 8.29 
0.04 0.14 -0.09 0.02 -0.30 7.96 0.02 -0.30 7.96 
-0.01 0.15 -0.07 -0.05 -0.60 7.51 -0.05 -0.60 7.51 
-0.03 0.16 -0.05 -0.13 -0.60 7.09 -0.13 -0.60 7.09 
-0.09 0.14 -0.03 -0.13 -1.02 6.95 -0.13 -1.02 6.95 
-0.17 0.10 0.02 -0.06 -1.24 6.62 -0.06 -1.24 6.62 
-0.24 0.02 0.03 -0.04 -1.41 6.29 -0.04 -1.41 6.29 
-0.22 -0.03 0.04 0.04 -1.86 6.07 0.04 -1.86 6.07 
-0.16 -0.07 0.04 0.26 -2.00 6.19 0.26 -2.00 6.19 
-0.07 -0.08 0.03 0.45 -2.13 6.52 0.45 -2.13 6.52 
0.06 -0.08 0.03 0.50 -1.90 7.03 0.50 -1.90 7.03 
0.20 -0.05 0.00 0.83 -1.90 7.97 0.83 -1.90 7.97 
0.33 0.03 -0.03 0.93 -1.51 8.48 0.93 -1.51 8.48 
0.40 0.10 -0.06 0.81 -1.09 8.59 0.81 -1.09 8.59 
0.32 0.12 -0.09 0.66 -0.95 9.03 0.66 -0.95 9.03 
0.16 0.09 -0.10 0.49 -0.96 9.21 0.49 -0.96 9.21 
0.01 0.06 -0.11 0.39 -1.28 9.67 0.39 -1.28 9.67 
-0.09 0.05 -0.10 0.24 -1.52 9.40 0.24 -1.52 9.40 
-0.20 0.00 -0.07 0.06 -1.84 9.36 0.06 -1.84 9.36 
-0.26 -0.05 -0.04 -0.02 -2.21 9.38 -0.02 -2.21 9.38 
-0.30 -0.09 -0.00 0.07 -2.51 9.49 0.07 -2.51 9.49 
-0.29 -0.11 0.06 0.23 -2.88 9.49 0.23 -2.88 9.49 
-0.18 -0.09 0.07 0.19 -2.98 9.65 0.19 -2.98 9.65 
-0.05 -0.06 0.08 0.28 -2.93 9.74 0.28 -2.93 9.74 
0.09 -0.01 0.08 0.35 -2.32 10.98 0.35 -2.32 10.98 
0.20 0.05 0.07 0.36 -1.90 11.68 0.36 -1.90 11.68 
0.23 0.12 0.06 0.03 -1.57 12.25 0.03 -1.57 12.25 
0.22 0.16 0.03 -0.45 -1.07 12.04 -0.45 -1.07 12.04 
0.10 0.13 0.01 -0.70 -1.28 12.46 -0.70 -1.28 12.46 
-0.04 0.10 0.00 -0.87 -1.56 12.69 -0.87 -1.56 12.69 
-0.07 0.11 0.02 -0.92 -1.52 12.36 -0.92 -1.52 12.36 
-0.10 0.10 0.05 -0.82 -1.51 12.57 -0.82 -1.51 12.57 
-0.13 0.07 0.07 -0.66 -1.48 12.44 -0.66 -1.48 12.44 
-0.13 0.08 0.10 -0.56 -1.30 12.52 -0.56 -1.30 12.52 
-0.15 0.07 0.12 -0.36 -1.26 12.53 -0.36 -1.26 12.53 
-0.10 0.11 0.14 0.07 -1.54 12.67 0.07 -1.54 12.67 
-0.01 0.18 0.13 0.35 -1.57 13.28 0.35 -1.57 13.28 
0.12 0.28 0.11 0.44 -1.40 13.56 0.44 -1.40 13.56 
0.23 0.35 0.08 0.29 -0.92 13.18 0.29 -0.92 13.18 
0.12 0.33 0.08 0.15 -0.67 12.76 0.15 -0.67 12.76 
0.04 0.29 0.08 -0.14 -0.57 13.42 -0.14 -0.57 13.42 
-0.03 0.27 0.07 -0.36 -0.15 12.47 -0.36 -0.15 12.47 
-0.14 0.21 0.05 -0.89 0.42 12.17 -0.89 0.42 12.17 
-0.19 0.16 0.01 -0.90 0.37 12.04 -0.90 0.37 12.04 
-0.17 0.14 -0.04 -0.88 0.02 11.88 -0.88 0.02 11.88 
-0.08 0.17 -0.11 -1.00 -0.17 11.48 -1.00 -0.17 11.48 
0.05 0.19 -0.15 -1.00 0.02 10.72 -1.00 0.02 10.72 
0.19 0.20 -0.17 -1.01 -0.06 10.47 -1.01 -0.06 10.47 
0.28 0.08 -0.17 -0.87 -0.14 10.30 -0.87 -0.14 10.30 
0.39 0.01 -0.15 -0.67 -0.01 9.81 -0.67 -0.01 9.81 
0.34 -0.08 -0.12 -0.55 0.05 9.55 -0.55 0.05 9.55 
0.24 -0.18 -0.06 -0.29 0.12 9.00 -0.29 0.12 9.00 
0.09 -0.29 -0.01 0.06 -0.14 8.49 0.06 -0.14 8.49 
-0.04 -0.37 0.03 0.41 -0.58 8.17 0.41 -0.58 8.17 
-0.09 -0.41 0.06 0.60 -0.73 7.49 0.60 -0.73 7.49 
-0.13 -0.43 0.08 0.75 -0.89 7.00 0.75 -0.89 7.00 
-0.17 -0.42 0.09 0.76 -0.94 6.77 0.76 -0.94 6.77 
-0.17 -0.35 0.09 0.85 -1.12 6.84 0.85 -1.12 6.84 
-0.14 -0.26 0.07 1.06 -1.23 6.87 1.06 -1.23 6.87 
-0.05 -0.14 0.04 0.96 -1.40 7.37 0.96 -1.40 7.37 
0.08 -0.01 0.02 0.97 -1.37 7.74 0.97 -1.37 7.74 
0.23 0.13 -0.01 0.87 -1.39 7.74 0.87 -1.39 7.74 
0.33 0.23 -0.02 0.64 -0.78 6.09 0.64 -0.78 6.09 
0.21 0.23 -0.05 -0.15 -1.36 7.87 -0.15 -1.36 7.87 
-0.13 0.10 -0.05 -0.26 -1.65 7.50 -0.26 -1.65 7.50 
-0.12 0.11 -0.03 -0.45 -1.68 7.83 -0.45 -1.68 7.83 
-0.12 0.10 -0.01 -0.46 -1.78 7.78 -0.46 -1.78 7.78 
-0.15 0.07 0.01 -0.60 -1.95 8.04 -0.60 -1.95 8.04 
-0.19 0.02 0.04 -0.40 -2.13 8.22 -0.40 -2.13 8.22 
-0.21 -0.03 0.06 -0.34 -2.32 8.46 -0.34 -2.32 8.46 
-0.22 -0.08 0.07 -0.22 -2.65 8.54 -0.22 -2.65 8.54 
-0.21 -0.12 0.10 -0.16 -2.80 8.79 -0.16 -2.80 8.79 
-0.16 -0.13 0.13 -0.21 -2.78 9.21 -0.21 -2.78 9.21 
-0.08 -0.12 0.15 -0.25 -2.69 9.72 -0.25 -2.69 9.72 
0.05 -0.09 0.16 -0.33 -2.50 10.38 -0.33 -2.50 10.38 
0.19 -0.04 0.16 -0.45 -2.13 10.93 -0.45 -2.13 10.93 
0.29 -0.02 0.17 -0.48 -1.68 11.48 -0.48 -1.68 11.48 
0.31 -0.01 0.17 -0.51 -1.18 11.78 -0.51 -1.18 11.78 
0.12 -0.07 0.19 -0.36 -1.07 12.45 -0.36 -1.07 12.45 
0.01 -0.08 0.20 -0.22 -0.99 12.74 -0.22 -0.99 12.74 
-0.16 -0.11 0.21 -0.10 -0.92 12.37 -0.10 -0.92 12.37 
-0.30 -0.14 0.22 -0.08 -1.44 11.81 -0.08 -1.44 11.81 
-0.40 -0.16 0.23 0.16 -1.79 11.51 0.16 -1.79 11.51 
-0.48 -0.17 0.24 0.36 -2.08 11.14 0.36 -2.08 11.14 
-0.49 -0.15 0.24 0.50 -2.24 11.03 0.50 -2.24 11.03 
-0.44 -0.13 0.22 0.53 -2.28 11.24 0.53 -2.28 11.24 
-0.30 -0.08 0.18 0.46 -2.12 11.89 0.46 -2.12 11.89 
-0.05 0.00 0.14 0.42 -1.77 12.71 0.42 -1.77 12.71 
0.28 0.11 0.11 0.39 -1.13 13.29 0.39 -1.13 13.29 
0.58 0.21 0.08 0.06 0.04 13.06 0.06 0.04 13.06 
0.65 0.16 0.08 -0.23 0.66 13.22 -0.23 0.66 13.22 
0.20 0.08 0.12 -0.38 0.79 14.66 -0.38 0.79 14.66 
0.02 0.03 0.17 -0.13 1.06 13.47 -0.13 1.06 13.47 
-0.19 -0.05 0.21 -0.07 0.76 13.74 -0.07 0.76 13.74 
-0.27 -0.07 0.24 0.08 0.27 12.89 0.08 0.27 12.89 
-0.29 -0.10 0.25 0.31 -0.02 12.41 0.31 -0.02 12.41 
-0.18 -0.06 0.25 0.46 -0.09 11.65 0.46 -0.09 11.65 
-0.07 -0.04 0.24 0.42 -0.38 11.41 0.42 -0.38 11.41 
0.06 -0.00 0.20 0.51 -0.39 11.31 0.51 -0.39 11.31 
0.25 0.05 0.15 -0.10 -0.10 10.63 -0.10 -0.10 10.63 
0.38 0.08 0.12 -0.41 0.19 10.05 -0.41 0.19 10.05 
0.30 0.01 0.08 -0.61 -0.06 10.60 -0.61 -0.06 10.60 
0.24 -0.08 0.06 -0.73 0.02 9.58 -0.73 0.02 9.58 
0.21 -0.13 0.06 -0.74 -0.42 9.40 -0.74 -0.42 9.40 
0.04 -0.27 0.09 -0.73 -0.61 9.11 -0.73 -0.61 9.11 
0.02 -0.30 0.11 -0.64 -0.82 8.35 -0.64 -0.82 8.35 
-0.01 -0.32 0.13 -0.45 -0.95 8.23 -0.45 -0.95 8.23 
0.01 -0.30 0.15 -0.30 -0.75 7.70 -0.30 -0.75 7.70 
0.01 -0.27 0.16 0.07 -0.90 7.56 0.07 -0.90 7.56 
-0.00 -0.22 0.15 0.37 -1.02 7.65 0.37 -1.02 7.65 
0.02 -0.15 0.13 0.61 -1.14 7.82 0.61 -1.14 7.82 
0.11 -0.07 0.11 0.88 -1.19 7.93 0.88 -1.19 7.93 
0.20 0.04 0.10 0.84 -1.29 8.02 0.84 -1.29 8.02 
0.24 0.13 0.07 0.78 -0.98 7.77 0.78 -0.98 7.77 
0.21 0.18 0.06 0.49 -0.81 7.39 0.49 -0.81 7.39 
0.05 0.16 0.05 0.37 -1.10 7.42 0.37 -1.10 7.42 
-0.08 0.12 0.04 0.25 -1.32 7.67 0.25 -1.32 7.67 
-0.13 0.10 0.04 0.27 -1.71 7.54 0.27 -1.71 7.54 
-0.14 0.06 0.04 0.00 -2.01 7.56 0.00 -2.01 7.56 
-0.10 0.04 0.03 -0.11 -1.89 7.74 -0.11 -1.89 7.74 
-0.04 0.01 0.02 -0.10 -1.73 7.96 -0.10 -1.73 7.96 
-0.02 -0.01 0.01 0.00 -1.64 8.31 0.00 -1.64 8.31 
-0.03 -0.02 -0.01 0.14 -1.64 8.53 0.14 -1.64 8.53 
-0.04 -0.03 -0.03 0.27 -1.72 8.78 0.27 -1.72 8.78 
-0.06 -0.03 -0.05 0.43 -1.87 8.91 0.43 -1.87 8.91 
-0.06 -0.02 -0.06 0.56 -2.12 9.06 0.56 -2.12 9.06 
-0.06 -0.02 -0.06 0.60 -2.29 9.24 0.60 -2.29 9.24 
-0.04 0.00 -0.06 0.62 -2.50 9.50 0.62 -2.50 9.50 
0.01 0.03 -0.05 0.56 -2.62 9.84 0.56 -2.62 9.84 
0.07 0.06 -0.05 0.43 -2.54 10.08 0.43 -2.54 10.08 
0.13 0.08 -0.05 0.34 -2.37 10.28 0.34 -2.37 10.28 
0.16 0.08 -0.05 0.20 -2.19 10.50 0.20 -2.19 10.50 
0.16 0.08 -0.06 -0.00 -2.00 10.92 -0.00 -2.00 10.92 
0.15 0.06 -0.09 -0.29 -1.82 11.39 -0.29 -1.82 11.39 
0.16 0.07 -0.11 -0.42 -1.54 11.70 -0.42 -1.54 11.70 
0.15 0.10 -0.13 -0.30 -1.12 11.74 -0.30 -1.12 11.74 
0.07 0.12 -0.12 -0.15 -0.93 11.75 -0.15 -0.93 11.75 
-0.01 0.13 -0.11 -0.10 -1.33 11.82 -0.10 -1.33 11.82 
-0.10 0.12 -0.09 0.20 -1.65 11.89 0.20 -1.65 11.89 
-0.17 0.11 -0.07 0.07 -1.76 11.59 0.07 -1.76 11.59 
-0.20 0.10 -0.03 0.02 -1.69 11.24 0.02 -1.69 11.24 
-0.24 0.06 0.00 0.02 -1.73 11.15 0.02 -1.73 11.15 
-0.27 0.03 0.03 0.10 -1.87 11.11 0.10 -1.87 11.11 
-0.25 0.02 0.04 0.25 -2.02 11.37 0.25 -2.02 11.37 
-0.21 0.03 0.02 0.36 -2.00 11.82 0.36 -2.00 11.82 
0.10 0.16 -0.02 0.31 -1.90 12.47 0.31 -1.90 12.47 
0.34 0.27 -0.03 0.18 -1.76 13.07 0.18 -1.76 13.07 
0.58 0.35 -0.02 -0.11 -1.15 13.36 -0.11 -1.15 13.36 
0.66 0.36 -0.02 -0.69 0.22 12.61 -0.69 0.22 12.61 
0.52 0.23 -0.02 -0.96 0.89 13.35 -0.96 0.89 13.35 
0.43 0.15 -0.03 -1.10 1.42 13.80 -1.10 1.42 13.80 
0.29 0.08 -0.06 -0.91 1.47 13.37 -0.91 1.47 13.37 
0.16 0.02 -0.10 -0.82 1.51 13.25 -0.82 1.51 13.25 
0.04 -0.03 -0.12 -0.60 0.51 12.08 -0.60 0.51 12.08 
-0.06 -0.07 -0.15 -0.60 0.28 11.25 -0.60 0.28 11.25 
-0.09 -0.09 -0.18 -0.40 -0.39 10.49 -0.40 -0.39 10.49 
-0.11 -0.11 -0.21 -0.32 -0.73 10.13 -0.32 -0.73 10.13 
-0.10 -0.13 -0.25 -0.15 -1.12 9.50 -0.15 -1.12 9.50 
0.01 -0.14 -0.24 -0.07 -1.47 9.16 -0.07 -1.47 9.16 
0.09 -0.11 -0.23 0.07 -1.60 9.10 0.07 -1.60 9.10 
0.19 -0.05 -0.21 0.19 -1.60 9.01 0.19 -1.60 9.01 
0.30 0.03 -0.17 0.04 -1.46 8.84 0.04 -1.46 8.84 
0.40 0.08 -0.12 0.09 -1.08 8.49 0.09 -1.08 8.49 
0.38 0.09 -0.08 0.04 -0.42 8.04 0.04 -0.42 8.04 
0.24 0.02 -0.06 0.34 -0.66 8.51 0.34 -0.66 8.51 
0.13 -0.02 -0.04 0.52 -0.43 8.85 0.52 -0.43 8.85 
0.05 -0.01 -0.03 0.58 -0.49 8.17 0.58 -0.49 8.17 
-0.10 -0.06 -0.03 0.56 -0.71 8.39 0.56 -0.71 8.39 
-0.21 -0.08 -0.03 0.44 -0.85 7.82 0.44 -0.85 7.82 
-0.29 -0.11 -0.03 0.46 -1.11 7.63 0.46 -1.11 7.63 
-0.38 -0.12 -0.03 0.35 -1.26 7.42 0.35 -1.26 7.42 
-0.42 -0.14 -0.04 0.33 -1.47 7.24 0.33 -1.47 7.24 
-0.42 -0.13 -0.06 0.40 -1.66 7.28 0.40 -1.66 7.28 
-0.32 -0.07 -0.08 0.62 -2.09 7.59 0.62 -2.09 7.59 
-0.23 -0.01 -0.09 0.63 -2.22 8.01 0.63 -2.22 8.01 
-0.12 0.05 -0.09 0.58 -2.21 8.42 0.58 -2.21 8.42 
0.03 0.11 -0.08 0.49 -2.11 8.64 0.49 -2.11 8.64 
0.14 0.15 -0.07 0.37 -1.95 8.82 0.37 -1.95 8.82 
0.16 0.14 -0.05 0.12 -1.85 8.95 0.12 -1.85 8.95 
0.10 0.09 -0.02 -0.09 -1.90 9.30 -0.09 -1.90 9.30 
-0.01 0.01 0.01 -0.13 -2.04 9.73 -0.13 -2.04 9.73 
-0.08 -0.06 0.05 -0.09 -2.19 10.05 -0.09 -2.19 10.05 
-0.10 -0.10 0.08 -0.04 -2.27 10.13 -0.04 -2.27 10.13 
-0.12 -0.13 0.13 0.01 -2.35 10.18 0.01 -2.35 10.18 
-0.13 -0.16 0.16 0.06 -2.48 10.27 0.06 -2.48 10.27 
-0.13 -0.17 0.20 0.17 -2.58 10.44 0.17 -2.58 10.44 
-0.10 -0.17 0.27 0.27 -2.71 10.60 0.27 -2.71 10.60 
0.02 -0.12 0.30 0.33 -2.77 10.79 0.33 -2.77 10.79 
0.08 -0.09 0.34 0.35 -2.67 10.90 0.35 -2.67 10.90 
0.09 -0.09 0.37 0.34 -2.43 11.00 0.34 -2.43 11.00 
0.08 -0.11 0.39 0.39 -2.23 11.42 0.39 -2.23 11.42 
0.05 -0.13 0.41 0.63 -1.89 11.71 0.63 -1.89 11.71 
-0.00 -0.15 0.42 0.75 -1.73 12.04 0.75 -1.73 12.04 
-0.05 -0.17 0.43 0.80 -1.68 12.18 0.80 -1.68 12.18 
-0.11 -0.18 0.44 0.85 -1.73 12.07 0.85 -1.73 12.07 
-0.19 -0.19 0.44 0.79 -1.79 11.68 0.79 -1.79 11.68 
-0.29 -0.24 0.46 0.70 -1.92 11.46 0.70 -1.92 11.46 
-0.40 -0.28 0.46 0.62 -2.07 11.21 0.62 -2.07 11.21 
-0.43 -0.31 0.46 0.53 -2.25 11.42 0.53 -2.25 11.42 
-0.17 -0.31 0.46 0.51 -2.26 11.94 0.51 -2.26 11.94 
0.11 -0.28 0.45 0.51 -2.00 12.52 0.51 -2.00 12.52 
0.38 -0.24 0.44 0.31 -1.43 12.93 0.31 -1.43 12.93 
0.54 -0.22 0.45 -0.02 -0.46 12.95 -0.02 -0.46 12.95 
0.42 -0.30 0.45 -0.25 0.18 12.61 -0.25 0.18 12.61 
0.27 -0.41 0.46 0.06 1.62 14.04 0.06 1.62 14.04 
0.12 -0.46 0.50 0.45 1.84 13.11 0.45 1.84 13.11 
-0.14 -0.56 0.52 0.90 1.89 13.45 0.90 1.89 13.45 
-0.35 -0.58 0.53 1.25 1.83 12.80 1.25 1.83 12.80 
-0.56 -0.57 0.52 1.83 1.00 11.41 1.83 1.00 11.41 
-0.69 -0.50 0.47 2.29 0.58 10.66 2.29 0.58 10.66 
-0.70 -0.37 0.40 2.67 0.11 10.45 2.67 0.11 10.45 
-0.67 -0.21 0.31 2.66 -0.16 10.47 2.66 -0.16 10.47 
-0.56 0.16 0.11 2.47 -0.38 11.28 2.47 -0.38 11.28 
0.01 0.39 0.03 2.20 -0.23 10.54 2.20 -0.23 10.54 
0.30 0.56 -0.03 1.38 -0.01 10.84 1.38 -0.01 10.84 
0.53 0.68 -0.08 0.50 0.54 10.05 0.50 0.54 10.05 
0.46 0.65 -0.12 -0.22 1.42 8.26 -0.22 1.42 8.26 
0.15 0.45 -0.13 -0.58 0.70 10.71 -0.58 0.70 10.71 
0.14 0.39 -0.11 -0.64 0.48 9.55 -0.64 0.48 9.55 
0.04 0.31 -0.07 -0.56 0.20 9.08 -0.56 0.20 9.08 
-0.09 0.18 -0.03 -0.47 -0.33 9.51 -0.47 -0.33 9.51 
-0.10 0.13 0.01 -0.24 -0.33 8.29 -0.24 -0.33 8.29 
-0.15 0.05 0.05 0.09 -0.63 8.43 0.09 -0.63 8.43 
-0.16 -0.00 0.07 0.35 -0.83 7.96 0.35 -0.83 7.96 
-0.14 -0.02 0.07 1.00 -1.37 7.74 1.00 -1.37 7.74 
-0.11 -0.02 0.08 0.84 -0.85 7.99 0.84 -0.85 7.99 
0.04 0.01 0.04 1.27 -1.37 8.37 1.27 -1.37 8.37 
0.29 0.12 0.02 1.21 -0.98 8.29 1.21 -0.98 8.29 
0.34 0.13 -0.02 1.30 -1.14 8.43 1.30 -1.14 8.43 
0.34 0.15 -0.04 0.05 -0.42 9.33 0.05 -0.42 9.33 
0.46 0.21 -0.08 0.18 -0.03 9.20 0.18 -0.03 9.20 
0.39 0.24 -0.11 0.07 0.17 8.10 0.07 0.17 8.10 
0.03 0.10 -0.10 -0.12 -0.59 10.51 -0.12 -0.59 10.51 
0.00 0.10 -0.11 0.11 -0.93 9.62 0.11 -0.93 9.62 
0.10 0.14 -0.12 -0.37 -0.22 9.11 -0.37 -0.22 9.11 
0.01 0.12 -0.13 -0.13 -0.66 9.15 -0.13 -0.66 9.15 
-0.08 0.06 -0.14 -0.27 -0.77 9.40 -0.27 -0.77 9.40 
-0.08 0.05 -0.13 0.15 -0.92 9.16 0.15 -0.92 9.16 
-0.07 0.05 -0.15 0.23 -0.98 9.47 0.23 -0.98 9.47 
-0.04 0.06 -0.18 0.32 -1.14 9.54 0.32 -1.14 9.54 
0.03 0.08 -0.22 0.36 -1.08 9.87 0.36 -1.08 9.87 
0.11 0.12 -0.26 0.44 -1.04 9.86 0.44 -1.04 9.86 
0.16 0.16 -0.34 0.32 -0.86 10.09 0.32 -0.86 10.09 
0.18 0.16 -0.39 0.33 -0.81 9.95 0.33 -0.81 9.95 
0.12 0.12 -0.41 0.18 -0.79 9.87 0.18 -0.79 9.87 
0.05 0.08 -0.43 0.14 -0.93 9.90 0.14 -0.93 9.90 
0.02 0.04 -0.45 0.10 -1.11 9.87 0.10 -1.11 9.87 
0.01 0.03 -0.45 0.08 -1.26 9.77 0.08 -1.26 9.77 
-0.00 0.01 -0.45 0.05 -1.40 9.78 0.05 -1.40 9.78 
0.01 0.01 -0.45 0.02 -1.55 9.88 0.02 -1.55 9.88 
0.05 0.02 -0.45 0.07 -1.62 9.88 0.07 -1.62 9.88 
0.10 0.05 -0.45 0.09 -1.60 9.95 0.09 -1.60 9.95 
0.12 0.07 -0.45 0.07 -1.61 9.90 0.07 -1.61 9.90 
0.15 0.10 -0.46 0.03 -1.59 10.03 0.03 -1.59 10.03 
0.17 0.12 -0.47 0.00 -1.58 10.20 0.00 -1.58 10.20 
0.17 0.13 -0.49 -0.03 -1.56 10.37 -0.03 -1.56 10.37 
0.18 0.15 -0.50 -0.14 -1.57 10.57 -0.14 -1.57 10.57 
0.15 0.18 -0.53 -0.23 -1.56 10.61 -0.23 -1.56 10.61 
0.11 0.19 -0.54 -0.33 -1.53 10.66 -0.33 -1.53 10.66 
0.05 0.20 -0.56 -0.40 -1.53 10.71 -0.40 -1.53 10.71 
0.00 0.20 -0.59 -0.48 -1.60 10.67 -0.48 -1.60 10.67 
-0.02 0.21 -0.61 -0.56 -1.67 10.65 -0.56 -1.67 10.65 
-0.04 0.23 -0.65 -0.61 -1.71 10.49 -0.61 -1.71 10.49 
-0.06 0.23 -0.68 -0.68 -1.74 10.36 -0.68 -1.74 10.36 
-0.07 0.23 -0.72 -0.73 -1.74 10.24 -0.73 -1.74 10.24 
-0.04 0.24 -0.76 -0.73 -1.70 10.52 -0.73 -1.70 10.52 
0.07 0.28 -0.82 -0.75 -1.62 10.88 -0.75 -1.62 10.88 
0.22 0.35 -0.86 -0.98 -1.20 12.05 -0.98 -1.20 12.05 
0.40 0.41 -0.91 -1.28 -0.61 11.88 -1.28 -0.61 11.88 
0.56 0.38 -0.95 -1.45 0.14 11.70 -1.45 0.14 11.70 
0.29 0.23 -0.95 -1.40 0.06 12.27 -1.40 0.06 12.27 
0.12 0.12 -0.93 -1.23 0.27 11.73 -1.23 0.27 11.73 
-0.08 0.01 -0.92 -0.96 0.09 11.17 -0.96 0.09 11.17 
-0.24 -0.08 -0.90 -0.58 -0.38 10.91 -0.58 -0.38 10.91 
-0.31 -0.12 -0.89 -0.21 -0.63 10.50 -0.21 -0.63 10.50 
-0.32 -0.12 -0.88 0.09 -0.86 10.00 0.09 -0.86 10.00 
-0.29 -0.09 -0.88 0.22 -0.97 9.83 0.22 -0.97 9.83 
-0.23 -0.05 -0.88 0.45 -1.02 9.73 0.45 -1.02 9.73 
-0.14 0.03 -0.88 0.50 -0.96 9.68 0.50 -0.96 9.68 
-0.02 0.11 -0.89 0.54 -0.80 9.63 0.54 -0.80 9.63 
0.06 0.18 -0.89 0.41 -0.49 9.54 0.41 -0.49 9.54 
0.09 0.21 -0.90 0.29 -0.18 9.35 0.29 -0.18 9.35 
0.02 0.19 -0.90 0.26 -0.16 9.72 0.26 -0.16 9.72 
-0.04 0.19 -0.93 0.17 -0.12 9.79 0.17 -0.12 9.79 
-0.11 0.18 -0.94 0.10 -0.05 9.60 0.10 -0.05 9.60 
-0.12 0.18 -0.95 -0.05 -0.13 9.53 -0.05 -0.13 9.53 
-0.11 0.18 -0.97 -0.33 -0.30 9.60 -0.33 -0.30 9.60 
-0.08 0.20 -0.99 -0.55 -0.42 9.56 -0.55 -0.42 9.56 
-0.03 0.22 -1.01 -0.76 -0.49 9.61 -0.76 -0.49 9.61 
0.02 0.24 -1.02 -0.97 -0.51 9.51 -0.97 -0.51 9.51 
0.04 0.24 -1.03 -1.17 -0.56 9.65 -1.17 -0.56 9.65 
0.06 0.23 -1.03 -1.23 -0.65 9.74 -1.23 -0.65 9.74 
0.08 0.23 -1.03 -1.24 -0.69 9.73 -1.24 -0.69 9.73 
0.09 0.22 -1.04 -1.22 -0.78 9.81 -1.22 -0.78 9.81 
0.08 0.21 -1.04 -1.16 -0.83 9.79 -1.16 -0.83 9.79 
0.09 0.20 -1.03 -1.02 -0.85 9.75 -1.02 -0.85 9.75 
0.08 0.17 -1.02 -0.78 -0.89 9.79 -0.78 -0.89 9.79 
0.08 0.16 -0.98 -0.53 -0.93 9.88 -0.53 -0.93 9.88 
0.05 0.17 -0.95 -0.33 -0.92 9.82 -0.33 -0.92 9.82 
0.03 0.17 -0.93 -0.21 -0.93 9.80 -0.21 -0.93 9.80 
0.03 0.19 -0.91 -0.16 -0.95 9.76 -0.16 -0.95 9.76 
0.03 0.22 -0.90 -0.10 -0.97 9.73 -0.10 -0.97 9.73 
0.07 0.26 -0.88 -0.17 -1.01 9.76 -0.17 -1.01 9.76 
0.13 0.30 -0.88 -0.28 -1.01 9.75 -0.28 -1.01 9.75 
0.20 0.32 -0.87 -0.45 -1.04 9.82 -0.45 -1.04 9.82 
0.25 0.34 -0.86 -0.73 -1.08 10.10 -0.73 -1.08 10.10 
0.30 0.35 -0.85 -0.95 -1.07 10.30 -0.95 -1.07 10.30 
0.32 0.34 -0.86 -0.92 -1.00 10.45 -0.92 -1.00 10.45 
0.32 0.32 -0.87 -0.89 -1.03 10.68 -0.89 -1.03 10.68 
0.31 0.31 -0.90 -0.88 -0.92 10.68 -0.88 -0.92 10.68 
0.28 0.29 -0.94 -0.83 -0.95 10.68 -0.83 -0.95 10.68 
0.21 0.26 -1.03 -0.84 -1.02 10.66 -0.84 -1.02 10.66 
0.14 0.20 -1.07 -0.90 -1.15 10.53 -0.90 -1.15 10.53 
0.12 0.18 -1.11 -0.91 -1.30 10.60 -0.91 -1.30 10.60 
0.15 0.17 -1.15 -0.94 -1.45 10.54 -0.94 -1.45 10.54 
0.19 0.16 -1.20 -0.95 -1.51 10.45 -0.95 -1.51 10.45 
0.20 0.13 -1.24 -0.87 -1.50 10.36 -0.87 -1.50 10.36 
0.20 0.11 -1.27 -0.80 -1.43 10.33 -0.80 -1.43 10.33 
0.20 0.09 -1.29 -0.72 -1.33 10.24 -0.72 -1.33 10.24 
0.17 0.06 -1.32 -0.61 -1.23 10.11 -0.61 -1.23 10.11 
0.15 0.04 -1.34 -0.44 -1.22 10.14 -0.44 -1.22 10.14 
0.13 0.02 -1.35 -0.31 -1.23 10.09 -0.31 -1.23 10.09 
0.13 -0.00 -1.35 -0.29 -1.21 10.11 -0.29 -1.21 10.11 
0.12 -0.01 -1.34 -0.20 -1.13 10.02 -0.20 -1.13 10.02 
0.12 -0.02 -1.31 -0.17 -1.10 9.99 -0.17 -1.10 9.99 
0.07 -0.02 -1.29 -0.16 -1.18 9.89 -0.16 -1.18 9.89 
0.06 -0.00 -1.26 -0.12 -1.20 9.84 -0.12 -1.20 9.84 
0.06 0.02 -1.23 -0.10 -1.23 9.88 -0.10 -1.23 9.88 
0.08 0.05 -1.20 -0.08 -1.22 9.99 -0.08 -1.22 9.99 
0.12 0.10 -1.18 -0.14 -1.17 10.07 -0.14 -1.17 10.07 
0.16 0.15 -1.15 -0.17 -1.03 10.09 -0.17 -1.03 10.09 
0.17 0.19 -1.13 -0.21 -0.94 10.07 -0.21 -0.94 10.07 
0.14 0.21 -1.10 -0.29 -0.94 10.17 -0.29 -0.94 10.17 
0.11 0.21 -1.08 -0.37 -0.98 10.07 -0.37 -0.98 10.07 
0.08 0.20 -1.04 -0.43 -1.07 9.96 -0.43 -1.07 9.96 
0.03 0.20 -1.02 -0.44 -1.24 9.93 -0.44 -1.24 9.93 
-0.01 0.20 -1.00 -0.50 -1.43 9.74 -0.50 -1.43 9.74 
-0.02 0.21 -0.98 -0.61 -1.64 9.57 -0.61 -1.64 9.57 
-0.02 0.22 -0.97 -0.63 -1.85 9.49 -0.63 -1.85 9.49 
0.05 0.20 -0.94 -0.64 -1.98 9.33 -0.64 -1.98 9.33 
0.11 0.18 -0.94 -0.64 -2.14 9.27 -0.64 -2.14 9.27 
0.17 0.15 -0.92 -0.64 -2.18 9.36 -0.64 -2.18 9.36 
0.23 0.12 -0.90 -0.61 -2.11 9.55 -0.61 -2.11 9.55 
0.24 0.09 -0.88 -0.48 -1.84 9.70 -0.48 -1.84 9.70 
0.24 0.08 -0.85 -0.40 -1.79 9.77 -0.40 -1.79 9.77 
0.22 0.07 -0.82 -0.33 -1.83 9.76 -0.33 -1.83 9.76 
0.15 0.05 -0.79 -0.25 -1.96 9.75 -0.25 -1.96 9.75 
0.08 0.02 -0.75 -0.21 -2.17 9.60 -0.21 -2.17 9.60 
0.02 -0.01 -0.71 -0.17 -2.27 9.54 -0.17 -2.27 9.54 
-0.04 -0.05 -0.68 -0.05 -2.52 9.58 -0.05 -2.52 9.58 
-0.08 -0.06 -0.64 0.08 -2.82 9.69 0.08 -2.82 9.69 
-0.08 -0.04 -0.61 0.19 -2.96 9.89 0.19 -2.96 9.89 
-0.03 -0.01 -0.59 0.25 -3.00 10.07 0.25 -3.00 10.07 
0.06 0.04 -0.54 0.25 -2.90 10.27 0.25 -2.90 10.27 
0.26 0.12 -0.47 0.23 -2.61 10.50 0.23 -2.61 10.50 
0.29 0.11 -0.42 0.25 -2.20 10.66 0.25 -2.20 10.66 
0.25 0.07 -0.39 0.28 -1.88 10.89 0.28 -1.88 10.89 
0.17 0.02 -0.35 0.29 -1.71 11.08 0.29 -1.71 11.08 
0.08 -0.03 -0.32 0.37 -1.71 11.32 0.37 -1.71 11.32 
0.00 -0.04 -0.30 0.36 -1.79 11.26 0.36 -1.79 11.26 
-0.07 -0.06 -0.27 0.23 -1.94 11.11 0.23 -1.94 11.11 
-0.13 -0.06 -0.25 0.11 -2.17 11.08 0.11 -2.17 11.08 
-0.14 -0.04 -0.24 0.02 -2.36 11.41 0.02 -2.36 11.41 
-0.11 -0.01 -0.21 -0.08 -2.41 11.38 -0.08 -2.41 11.38 
-0.06 0.02 -0.18 -0.07 -2.20 11.37 -0.07 -2.20 11.37 
-0.06 0.01 -0.14 -0.04 -2.07 11.42 -0.04 -2.07 11.42 
-0.12 -0.01 -0.10 0.07 -2.13 11.49 0.07 -2.13 11.49 
-0.29 -0.05 -0.02 0.06 -2.19 11.57 0.06 -2.19 11.57 
-0.33 -0.02 -0.01 -0.05 -2.21 11.55 -0.05 -2.21 11.55 
-0.29 0.02 0.00 -0.25 -2.19 11.59 -0.25 -2.19 11.59 
-0.20 0.09 -0.00 -0.36 -2.12 11.79 -0.36 -2.12 11.79 
-0.13 0.16 -0.01 -0.40 -2.44 11.99 -0.40 -2.44 11.99 
-0.08 0.22 -0.01 -0.50 -1.12 12.14 -0.50 -1.12 12.14 
-0.03 0.23 -0.01 -0.55 -1.17 11.67 -0.55 -1.17 11.67 
-0.12 0.20 0.00 -0.47 -0.98 11.88 -0.47 -0.98 11.88 
-0.16 0.19 -0.00 -0.38 -0.95 11.91 -0.38 -0.95 11.91 
-0.18 0.19 -0.01 -0.26 -0.83 11.61 -0.26 -0.83 11.61 
-0.21 0.20 -0.02 -0.21 -0.79 11.50 -0.21 -0.79 11.50 
-0.20 0.23 -0.05 -0.09 -0.85 11.23 -0.09 -0.85 11.23 
-0.17 0.26 -0.08 -0.07 -0.90 10.80 -0.07 -0.90 10.80 
-0.07 0.32 -0.11 -0.17 -0.87 10.53 -0.17 -0.87 10.53 
-0.05 0.33 -0.11 -0.31 -0.66 9.90 -0.31 -0.66 9.90 
-0.11 0.29 -0.10 -0.33 -0.74 9.54 -0.33 -0.74 9.54 
-0.18 0.23 -0.10 -0.35 -0.93 9.32 -0.35 -0.93 9.32 
-0.20 0.18 -0.11 -0.18 -1.00 8.85 -0.18 -1.00 8.85 
-0.20 0.11 -0.13 -0.06 -1.12 8.66 -0.06 -1.12 8.66 
-0.17 0.04 -0.15 0.13 -1.17 8.49 0.13 -1.17 8.49 
-0.11 0.01 -0.19 0.28 -1.17 8.41 0.28 -1.17 8.41 
-0.04 0.00 -0.24 0.29 -1.20 8.42 0.29 -1.20 8.42 
0.03 0.01 -0.30 0.19 -1.24 8.48 0.19 -1.24 8.48 
0.11 0.03 -0.36 0.12 -1.31 8.56 0.12 -1.31 8.56 
0.18 0.07 -0.40 0.01 -1.30 8.65 0.01 -1.30 8.65 
0.24 0.09 -0.45 -0.11 -1.32 8.59 -0.11 -1.32 8.59 
0.28 0.10 -0.48 -0.25 -1.25 8.62 -0.25 -1.25 8.62 
0.30 0.04 -0.51 -0.38 -1.24 8.63 -0.38 -1.24 8.63 
0.26 -0.00 -0.51 -0.47 -1.23 8.70 -0.47 -1.23 8.70 
0.22 -0.05 -0.51 -0.48 -1.21 8.63 -0.48 -1.21 8.63 
0.16 -0.09 -0.50 -0.37 -1.19 8.65 -0.37 -1.19 8.65 
0.08 -0.13 -0.50 -0.20 -1.28 8.54 -0.20 -1.28 8.54 
0.02 -0.15 -0.51 -0.05 -1.68 8.48 -0.05 -1.68 8.48 
-0.01 -0.15 -0.52 0.00 -1.79 8.44 0.00 -1.79 8.44 
-0.00 -0.12 -0.55 0.00 -1.88 8.47 0.00 -1.88 8.47 
0.03 -0.07 -0.57 -0.05 -1.93 8.47 -0.05 -1.93 8.47 
0.06 -0.01 -0.61 -0.09 -2.05 8.53 -0.09 -2.05 8.53 
0.10 0.07 -0.66 -0.11 -2.24 8.77 -0.11 -2.24 8.77 
0.16 0.15 -0.69 -0.20 -2.34 9.01 -0.20 -2.34 9.01 
0.23 0.23 -0.71 -0.30 -2.29 9.27 -0.30 -2.29 9.27 
0.29 0.29 -0.72 -0.51 -2.28 9.34 -0.51 -2.28 9.34 
0.32 0.32 -0.71 -0.69 -1.95 9.41 -0.69 -1.95 9.41 
0.28 0.23 -0.68 -0.73 -2.04 9.37 -0.73 -2.04 9.37 
0.06 0.14 -0.65 -0.64 -2.12 9.41 -0.64 -2.12 9.41 
-0.03 0.07 -0.63 -0.46 -2.34 9.53 -0.46 -2.34 9.53 
-0.08 0.02 -0.61 -0.19 -2.55 9.40 -0.19 -2.55 9.40 
-0.10 -0.01 -0.60 0.07 -2.75 9.35 0.07 -2.75 9.35 
-0.11 -0.04 -0.60 0.28 -2.94 9.25 0.28 -2.94 9.25 
-0.09 -0.04 -0.59 0.41 -3.08 9.31 0.41 -3.08 9.31 
-0.06 -0.02 -0.59 0.56 -3.14 9.25 0.56 -3.14 9.25 
-0.03 0.04 -0.59 0.66 -3.14 9.53 0.66 -3.14 9.53 
0.02 0.11 -0.59 0.64 -3.03 9.89 0.64 -3.03 9.89 
0.08 0.20 -0.57 0.47 -2.81 10.48 0.47 -2.81 10.48 
0.12 0.24 -0.53 -0.03 -1.74 9.72 -0.03 -1.74 9.72 
0.05 0.22 -0.47 -0.16 -1.80 9.93 -0.16 -1.80 9.93 
-0.21 0.08 -0.41 -0.05 -2.33 10.16 -0.05 -2.33 10.16 
-0.32 -0.05 -0.37 0.57 -2.62 9.92 0.57 -2.62 9.92 
-0.41 -0.11 -0.26 0.76 -2.89 10.16 0.76 -2.89 10.16 
-0.36 -0.05 -0.25 0.95 -3.14 10.14 0.95 -3.14 10.14 
-0.18 0.10 -0.25 1.11 -3.72 11.18 1.11 -3.72 11.18 
0.17 0.33 -0.25 0.76 -3.16 10.79 0.76 -3.16 10.79 
0.33 0.47 -0.25 0.53 -2.81 11.45 0.53 -2.81 11.45 
0.50 0.57 -0.24 0.41 -2.24 12.38 0.41 -2.24 12.38 
0.61 0.64 -0.21 -0.30 -1.17 12.08 -0.30 -1.17 12.08 
0.30 0.52 -0.18 -0.48 -0.63 11.10 -0.48 -0.63 11.10 
-0.16 0.23 -0.14 -0.55 -1.35 13.66 -0.55 -1.35 13.66 
-0.31 0.15 -0.11 -0.39 -1.41 11.79 -0.39 -1.41 11.79 
-0.50 0.04 -0.11 -0.37 -2.40 12.28 -0.37 -2.40 12.28 
-0.58 -0.01 -0.14 -0.57 -2.02 11.57 -0.57 -2.02 11.57 
-0.47 0.00 -0.26 -0.35 -2.92 11.66 -0.35 -2.92 11.66 
-0.05 0.18 -0.32 -0.01 -2.80 13.10 -0.01 -2.80 13.10 
0.38 0.35 -0.37 -0.12 -1.83 13.52 -0.12 -1.83 13.52 
0.73 0.45 -0.40 -0.48 -0.68 13.75 -0.48 -0.68 13.75 
0.91 0.50 -0.43 -1.20 1.36 12.66 -1.20 1.36 12.66 
0.62 0.36 -0.43 -1.38 1.79 14.68 -1.38 1.79 14.68 
0.38 0.23 -0.42 -1.45 2.22 13.87 -1.45 2.22 13.87 
0.09 0.18 -0.39 -1.35 1.99 12.86 -1.35 1.99 12.86 
-0.30 0.05 -0.38 -1.24 1.05 12.51 -1.24 1.05 12.51 
-0.49 0.00 -0.37 -1.01 0.21 10.97 -1.01 0.21 10.97 
-0.57 -0.01 -0.37 -0.85 -0.61 10.14 -0.85 -0.61 10.14 
-0.51 0.00 -0.41 -0.66 -1.39 9.15 -0.66 -1.39 9.15 
-0.40 0.02 -0.43 -0.45 -2.28 9.08 -0.45 -2.28 9.08 
-0.22 0.10 -0.46 -0.45 -2.45 9.06 -0.45 -2.45 9.06 
0.39 0.18 -0.45 -0.50 -2.50 9.35 -0.50 -2.50 9.35 
0.69 0.23 -0.42 -0.35 -2.03 9.18 -0.35 -2.03 9.18 
0.88 0.23 -0.38 -0.41 -1.52 9.00 -0.41 -1.52 9.00 
0.64 0.07 -0.35 -0.70 -0.21 7.09 -0.70 -0.21 7.09 
0.36 -0.18 -0.32 -0.37 -0.39 9.56 -0.37 -0.39 9.56 
0.32 -0.22 -0.30 0.25 0.32 8.48 0.25 0.32 8.48 
0.14 -0.29 -0.30 0.43 0.01 9.34 0.43 0.01 9.34 
-0.04 -0.34 -0.31 0.61 -0.11 8.51 0.61 -0.11 8.51 
-0.10 -0.31 -0.33 0.90 -0.33 8.41 0.90 -0.33 8.41 
-0.21 -0.27 -0.35 0.84 -0.76 7.91 0.84 -0.76 7.91 
-0.26 -0.22 -0.37 0.89 -1.07 7.73 0.89 -1.07 7.73 
-0.26 -0.15 -0.38 0.84 -1.42 7.21 0.84 -1.42 7.21 
-0.23 -0.08 -0.37 0.69 -1.70 7.05 0.69 -1.70 7.05 
-0.18 -0.01 -0.38 0.49 -1.94 6.95 0.49 -1.94 6.95 
-0.08 0.06 -0.36 0.31 -2.12 7.18 0.31 -2.12 7.18 
0.18 0.14 -0.35 0.24 -2.18 7.42 0.24 -2.18 7.42 
0.26 0.15 -0.32 0.08 -2.07 7.61 0.08 -2.07 7.61 
0.28 0.14 -0.30 -0.01 -1.98 7.95 -0.01 -1.98 7.95 
0.25 0.11 -0.26 0.00 -1.96 8.46 0.00 -1.96 8.46 
0.20 0.09 -0.24 -0.08 -1.91 8.78 -0.08 -1.91 8.78 
0.14 0.05 -0.21 -0.20 -1.93 8.97 -0.20 -1.93 8.97 
0.07 -0.01 -0.19 -0.37 -1.94 8.96 -0.37 -1.94 8.96 
-0.00 -0.07 -0.18 -0.41 -2.11 9.10 -0.41 -2.11 9.10 
-0.03 -0.11 -0.17 -0.36 -2.33 9.36 -0.36 -2.33 9.36 
0.01 -0.12 -0.15 -0.28 -2.50 9.70 -0.28 -2.50 9.70 
0.06 -0.12 -0.14 -0.24 -2.64 9.86 -0.24 -2.64 9.86 
0.13 -0.12 -0.12 -0.06 -2.47 10.42 -0.06 -2.47 10.42 
0.18 -0.11 -0.11 -0.01 -2.37 10.75 -0.01 -2.37 10.75 
0.20 -0.09 -0.10 0.00 -2.27 10.84 0.00 -2.27 10.84 
0.21 -0.09 -0.05 0.04 -2.11 10.88 0.04 -2.11 10.88 
0.17 -0.12 -0.03 0.14 -2.03 11.00 0.14 -2.03 11.00 
0.12 -0.15 -0.00 0.22 -1.95 11.29 0.22 -1.95 11.29 
0.09 -0.17 0.02 0.38 -1.92 11.53 0.38 -1.92 11.53 
0.06 -0.16 0.05 0.47 -1.81 11.53 0.47 -1.81 11.53 
0.02 -0.14 0.08 0.58 -1.72 11.46 0.58 -1.72 11.46 
-0.04 -0.12 0.10 0.72 -1.79 11.57 0.72 -1.79 11.57 
-0.10 -0.10 0.12 0.80 -1.91 11.63 0.80 -1.91 11.63 
-0.15 -0.05 0.14 0.80 -2.13 11.58 0.80 -2.13 11.58 
-0.18 -0.02 0.16 0.72 -2.29 11.52 0.72 -2.29 11.52 
-0.20 0.00 0.17 0.55 -2.27 11.50 0.55 -2.27 11.50 
-0.19 0.01 0.17 0.43 -2.23 11.50 0.43 -2.23 11.50 
-0.14 0.02 0.17 0.41 -2.09 11.66 0.41 -2.09 11.66 
-0.01 0.05 0.15 0.56 -1.95 12.14 0.56 -1.95 12.14 
0.11 0.12 0.14 0.33 -0.96 13.18 0.33 -0.96 13.18 
0.22 0.19 0.14 0.01 -0.18 13.17 0.01 -0.18 13.17 
0.26 0.21 0.13 -0.14 0.39 13.29 -0.14 0.39 13.29 
0.18 0.15 0.14 -0.30 0.72 13.80 -0.30 0.72 13.80 
0.13 0.10 0.16 -0.25 1.21 13.00 -0.25 1.21 13.00 
-0.04 0.02 0.19 0.08 1.05 12.58 0.08 1.05 12.58 
-0.26 -0.07 0.21 0.34 0.72 11.71 0.34 0.72 11.71 
-0.43 -0.13 0.24 0.65 0.10 10.83 0.65 0.10 10.83 
-0.52 -0.14 0.25 0.97 -0.46 10.22 0.97 -0.46 10.22 
-0.52 -0.10 0.25 1.19 -0.96 9.85 1.19 -0.96 9.85 
-0.46 -0.04 0.24 1.15 -1.17 9.99 1.15 -1.17 9.99 
-0.27 0.08 0.22 1.04 -1.27 10.33 1.04 -1.27 10.33 
0.35 0.33 0.18 0.69 -1.03 10.73 0.69 -1.03 10.73 
0.57 0.40 0.16 0.22 -0.38 10.23 0.22 -0.38 10.23 
0.43 0.32 0.12 -0.41 0.82 9.36 -0.41 0.82 9.36 
0.24 0.14 0.11 -0.44 0.56 10.63 -0.44 0.56 10.63 
0.22 0.07 0.09 -0.52 0.54 10.78 -0.52 0.54 10.78 
0.11 -0.03 0.08 -0.39 0.70 10.10 -0.39 0.70 10.10 
0.02 -0.10 0.07 -0.26 0.42 10.20 -0.26 0.42 10.20 
-0.01 -0.14 0.08 -0.08 0.28 10.17 -0.08 0.28 10.17 
-0.09 -0.18 0.08 0.07 -0.06 9.94 0.07 -0.06 9.94 
-0.11 -0.19 0.09 0.27 -0.17 9.53 0.27 -0.17 9.53 
-0.12 -0.17 0.09 0.42 -0.31 9.19 0.42 -0.31 9.19 
-0.10 -0.16 0.10 0.54 -0.44 8.80 0.54 -0.44 8.80 
-0.08 -0.14 0.09 0.62 -0.60 8.49 0.62 -0.60 8.49 
-0.04 -0.12 0.08 0.69 -0.69 8.32 0.69 -0.69 8.32 
0.06 -0.07 0.05 0.69 -0.71 8.40 0.69 -0.71 8.40 
0.11 -0.03 0.03 0.64 -0.62 8.56 0.64 -0.62 8.56 
0.14 0.01 0.01 0.52 -0.57 8.65 0.52 -0.57 8.65 
0.12 0.04 -0.02 0.27 -0.50 8.81 0.27 -0.50 8.81 
0.07 0.05 -0.04 0.07 -0.52 8.83 0.07 -0.52 8.83 
-0.00 0.04 -0.06 -0.05 -0.59 8.83 -0.05 -0.59 8.83 
-0.05 0.04 -0.08 -0.15 -0.87 8.80 -0.15 -0.87 8.80 
-0.07 0.01 -0.09 -0.22 -1.09 8.75 -0.22 -1.09 8.75 
-0.06 -0.02 -0.10 -0.31 -1.18 8.76 -0.31 -1.18 8.76 
-0.01 -0.04 -0.11 -0.31 -1.14 8.63 -0.31 -1.14 8.63 
0.04 -0.05 -0.12 -0.06 -1.17 9.12 -0.06 -1.17 9.12 
0.09 -0.03 -0.13 0.11 -1.13 9.57 0.11 -1.13 9.57 
0.14 -0.00 -0.15 0.14 -0.93 9.72 0.14 -0.93 9.72 
0.15 0.01 -0.16 0.08 -0.58 10.16 0.08 -0.58 10.16 
0.10 0.02 -0.19 0.20 -0.53 10.55 0.20 -0.53 10.55 
0.05 0.02 -0.23 0.29 -0.51 10.50 0.29 -0.51 10.50 
-0.05 0.01 -0.24 0.21 -0.56 10.58 0.21 -0.56 10.58 
-0.09 0.02 -0.26 0.03 -0.69 10.48 0.03 -0.69 10.48 
-0.10 0.03 -0.28 -0.03 -0.84 10.44 -0.03 -0.84 10.44 
-0.09 0.03 -0.30 -0.06 -0.99 10.50 -0.06 -0.99 10.50 
-0.07 0.04 -0.31 -0.10 -1.16 10.54 -0.10 -1.16 10.54 
-0.03 0.05 -0.31 -0.08 -1.19 10.57 -0.08 -1.19 10.57 
0.01 0.07 -0.30 -0.00 -1.21 10.46 -0.00 -1.21 10.46 
0.03 0.09 -0.30 0.06 -1.21 10.38 0.06 -1.21 10.38 
0.01 0.12 -0.30 0.12 -1.25 10.30 0.12 -1.25 10.30 
-0.00 0.14 -0.29 0.27 -1.33 10.25 0.27 -1.33 10.25 
-0.01 0.16 -0.28 0.29 -1.39 10.20 0.29 -1.39 10.20 
-0.02 0.19 -0.27 0.26 -1.38 10.03 0.26 -1.38 10.03 
-0.03 0.20 -0.26 0.30 -1.41 9.85 0.30 -1.41 9.85 
-0.05 0.19 -0.24 0.33 -1.52 9.81 0.33 -1.52 9.81 
-0.04 0.19 -0.24 0.39 -1.51 9.80 0.39 -1.51 9.80 
-0.02 0.18 -0.24 0.38 -1.38 9.89 0.38 -1.38 9.89 
-0.03 0.19 -0.25 0.38 -1.35 9.93 0.38 -1.35 9.93 
-0.05 0.20 -0.26 0.40 -1.45 9.95 0.40 -1.45 9.95 
-0.06 0.22 -0.27 0.37 -1.48 10.11 0.37 -1.48 10.11 
-0.04 0.24 -0.28 0.28 -1.42 10.34 0.28 -1.42 10.34 
0.02 0.26 -0.30 0.17 -1.22 10.46 0.17 -1.22 10.46 
0.10 0.30 -0.33 0.05 -0.96 10.65 0.05 -0.96 10.65 
0.18 0.31 -0.36 -0.06 -0.72 10.99 -0.06 -0.72 10.99 
0.24 0.31 -0.38 -0.20 -0.46 11.41 -0.20 -0.46 11.41 
0.28 0.29 -0.38 -0.40 -0.08 11.41 -0.40 -0.08 11.41 
0.24 0.23 -0.36 -0.40 -0.22 11.72 -0.40 -0.22 11.72 
0.14 0.10 -0.30 -0.48 0.24 11.57 -0.48 0.24 11.57 
-0.18 0.04 -0.26 -0.46 0.02 11.01 -0.46 0.02 11.01 
-0.31 -0.01 -0.24 -0.41 -0.41 10.83 -0.41 -0.41 10.83 
-0.35 -0.01 -0.23 -0.33 -0.77 10.34 -0.33 -0.77 10.34 
-0.36 -0.01 -0.23 -0.29 -1.11 9.98 -0.29 -1.11 9.98 
-0.31 0.00 -0.23 -0.27 -1.42 9.90 -0.27 -1.42 9.90 
-0.16 0.04 -0.23 -0.26 -1.61 10.00 -0.26 -1.61 10.00 
0.06 0.08 -0.22 -0.20 -1.21 10.35 -0.20 -1.21 10.35 
0.26 0.11 -0.21 -0.28 -0.74 10.27 -0.28 -0.74 10.27 
0.38 0.10 -0.19 -0.22 -0.14 10.33 -0.22 -0.14 10.33 
0.32 0.04 -0.17 -0.11 0.07 11.15 -0.11 0.07 11.15 
0.24 -0.03 -0.15 -0.00 0.30 10.79 -0.00 0.30 10.79 
0.16 -0.07 -0.13 0.05 0.35 10.77 0.05 0.35 10.77 
0.03 -0.14 -0.11 0.20 0.06 10.68 0.20 0.06 10.68 
-0.16 -0.18 -0.11 0.29 -0.23 10.40 0.29 -0.23 10.40 
-0.20 -0.16 -0.12 0.34 -0.62 10.13 0.34 -0.62 10.13 
-0.18 -0.13 -0.12 0.31 -0.92 9.91 0.31 -0.92 9.91 
-0.14 -0.08 -0.11 0.25 -1.19 9.72 0.25 -1.19 9.72 
-0.07 -0.02 -0.10 0.20 -1.25 9.48 0.20 -1.25 9.48 
-0.01 0.02 -0.08 0.16 -1.26 9.34 0.16 -1.26 9.34 
0.02 0.06 -0.05 0.11 -1.26 9.14 0.11 -1.26 9.14 
0.03 0.07 -0.01 0.10 -1.24 9.02 0.10 -1.24 9.02 
0.00 0.06 0.02 0.11 -1.25 8.93 0.11 -1.25 8.93 
-0.02 0.06 0.06 0.17 -1.31 8.94 0.17 -1.31 8.94 
-0.04 0.07 0.09 0.23 -1.40 8.91 0.23 -1.40 8.91 
-0.04 0.09 0.12 0.21 -1.59 8.92 0.21 -1.59 8.92 
0.01 0.11 0.13 0.12 -1.62 8.92 0.12 -1.62 8.92 
0.08 0.13 0.15 0.11 -1.60 9.03 0.11 -1.60 9.03 
0.15 0.14 0.16 -0.03 -1.48 9.11 -0.03 -1.48 9.11 
0.28 0.12 0.16 -0.07 -1.35 9.34 -0.07 -1.35 9.34 
0.34 0.10 0.17 -0.10 -1.14 9.65 -0.10 -1.14 9.65 
0.39 0.07 0.18 -0.15 -0.90 9.90 -0.15 -0.90 9.90 
0.41 0.05 0.18 -0.27 -0.73 10.24 -0.27 -0.73 10.24 
0.38 0.02 0.20 -0.34 -0.47 10.34 -0.34 -0.47 10.34 
0.29 -0.02 0.21 -0.35 -0.45 10.55 -0.35 -0.45 10.55 
0.19 -0.08 0.24 -0.35 -0.61 10.42 -0.35 -0.61 10.42 
0.06 -0.14 0.26 -0.28 -0.91 10.30 -0.28 -0.91 10.30 
-0.04 -0.19 0.27 -0.21 -1.23 10.13 -0.21 -1.23 10.13 
-0.07 -0.22 0.28 -0.21 -1.50 9.94 -0.21 -1.50 9.94 
-0.04 -0.23 0.28 -0.16 -1.71 10.13 -0.16 -1.71 10.13 
0.05 -0.22 0.27 -0.06 -1.84 10.60 -0.06 -1.84 10.60 
0.23 -0.18 0.25 0.06 -2.32 11.13 0.06 -2.32 11.13 
0.43 0.03 0.21 0.05 -1.31 11.83 0.05 -1.31 11.83 
0.76 0.11 0.21 -0.17 -1.23 11.97 -0.17 -1.23 11.97 
0.62 0.07 0.21 -0.56 -0.39 11.25 -0.56 -0.39 11.25 
0.45 -0.05 0.23 -0.54 -0.36 12.06 -0.54 -0.36 12.06 
0.35 -0.10 0.25 -0.40 -0.34 11.24 -0.40 -0.34 11.24 
0.16 -0.19 0.27 -0.14 -0.58 11.19 -0.14 -0.58 11.19 
0.00 -0.25 0.27 0.09 -0.76 10.35 0.09 -0.76 10.35 
-0.10 -0.28 0.28 0.32 -1.09 9.74 0.32 -1.09 9.74 
-0.18 -0.29 0.27 0.53 -1.41 9.09 0.53 -1.41 9.09 
-0.23 -0.27 0.25 0.72 -1.65 8.58 0.72 -1.65 8.58 
-0.23 -0.24 0.24 0.78 -1.88 8.16 0.78 -1.88 8.16 
-0.19 -0.20 0.23 0.78 -2.08 7.90 0.78 -2.08 7.90 
-0.13 -0.14 0.22 0.72 -2.07 7.77 0.72 -2.07 7.77 
-0.07 -0.07 0.20 0.65 -2.03 8.01 0.65 -2.03 8.01 
0.01 0.00 0.16 0.60 -1.94 8.66 0.60 -1.94 8.66 
0.29 0.22 0.14 0.55 -1.78 9.28 0.55 -1.78 9.28 
0.43 0.33 0.12 0.34 -1.53 9.52 0.34 -1.53 9.52 
0.50 0.39 0.11 0.10 -1.18 9.50 0.10 -1.18 9.50 
0.45 0.37 0.10 -0.28 -0.77 9.20 -0.28 -0.77 9.20 
0.31 0.26 0.09 -0.35 -0.97 9.87 -0.35 -0.97 9.87 
0.31 0.20 0.11 -0.45 -1.00 10.47 -0.45 -1.00 10.47 
0.37 0.16 0.13 -0.49 -0.84 10.49 -0.49 -0.84 10.49 
0.40 0.10 0.15 -0.65 -0.62 10.89 -0.65 -0.62 10.89 
0.46 0.05 0.17 -0.63 -0.29 11.54 -0.63 -0.29 11.54 
0.50 0.02 0.18 -0.28 0.23 12.39 -0.28 0.23 12.39 
0.46 -0.01 0.21 -0.16 0.47 12.46 -0.16 0.47 12.46 
0.36 -0.04 0.23 0.00 0.52 12.17 0.00 0.52 12.17 
0.21 -0.09 0.25 0.18 0.28 11.77 0.18 0.28 11.77 
0.01 -0.13 0.27 0.43 -0.18 11.21 0.43 -0.18 11.21 
-0.29 -0.18 0.29 0.56 -0.66 10.55 0.56 -0.66 10.55 
-0.38 -0.18 0.29 0.64 -1.03 9.82 0.64 -1.03 9.82 
-0.42 -0.17 0.29 0.67 -1.42 9.27 0.67 -1.42 9.27 
-0.41 -0.16 0.27 0.72 -1.80 8.99 0.72 -1.80 8.99 
-0.33 -0.13 0.26 0.72 -2.03 8.86 0.72 -2.03 8.86 
-0.22 -0.08 0.25 0.74 -2.07 8.86 0.74 -2.07 8.86 
-0.05 -0.02 0.24 0.61 -2.05 9.05 0.61 -2.05 9.05 
0.13 0.05 0.22 0.59 -1.99 9.29 0.59 -1.99 9.29 
0.31 0.12 0.21 0.51 -1.56 9.52 0.51 -1.56 9.52 
0.44 0.18 0.18 0.36 -1.22 9.58 0.36 -1.22 9.58 
0.48 0.19 0.17 0.17 -0.83 9.75 0.17 -0.83 9.75 
0.42 0.17 0.15 -0.04 -0.44 9.92 -0.04 -0.44 9.92 
0.30 0.11 0.14 -0.13 -0.45 10.67 -0.13 -0.45 10.67 
0.25 0.07 0.13 -0.18 -0.33 10.69 -0.18 -0.33 10.69 
0.18 0.04 0.12 -0.21 -0.35 10.72 -0.21 -0.35 10.72 
0.11 -0.02 0.12 -0.27 -0.56 10.80 -0.27 -0.56 10.80 
0.11 -0.05 0.13 -0.31 -0.67 10.89 -0.31 -0.67 10.89 
0.12 -0.05 0.14 -0.28 -0.72 10.78 -0.28 -0.72 10.78 
0.13 -0.06 0.15 -0.17 -0.70 10.72 -0.17 -0.70 10.72 
0.11 -0.06 0.15 -0.09 -0.79 10.58 -0.09 -0.79 10.58 
0.09 -0.07 0.16 -0.02 -0.86 10.48 -0.02 -0.86 10.48 
0.06 -0.09 0.18 0.06 -0.92 10.35 0.06 -0.92 10.35 
0.03 -0.10 0.19 0.09 -0.91 10.17 0.09 -0.91 10.17 
0.00 -0.11 0.19 0.20 -0.99 10.07 0.20 -0.99 10.07 
-0.02 -0.12 0.19 0.25 -1.08 10.02 0.25 -1.08 10.02 
-0.03 -0.11 0.18 0.28 -1.21 10.04 0.28 -1.21 10.04 
